success,timeout,failed_images,failed_audio,failed_video,trial_type,trial_index,time_elapsed,internal_node_id,payoff,volatility,uncertainty,transition_prob,counterbalance,resample_fish,rt,stimulus,response,trial_name,task_type,phase,stakes,frame_color,reward_multiplier,available_boats,boat_chosen_id,boat_chosen_name,reward,cumulative_reward,fish_caught_id,fish_caught_name,valuable_fish_id,valuable_fish_name,day,accuracy,participant_id
True,False,[],[],[],preload,0,2952,0.0-0.0,1,0.1538461538461538,Certain,"[[0.8,0.2,0],[0,0.8,0.2],[0.2,0,0.8]]",0,6.5,,,,,,,,,,,,,,,,,,,,,PVNK7
,,,,,html-button-response,1,6875,0.0-1.0,1,0.1538461538461538,Certain,"[[0.8,0.2,0],[0,0.8,0.2],[0.2,0,0.8]]",0,6.5,3921.0,"
      <div style=""max-width: 900px; margin: 0 auto;"">
        <p><strong>Please consider the following information carefully before deciding whether to participate in this research.</strong></p>
        <p>The purpose of this study is to examine how people make decisions. You will be asked to answer some questions about a situation described to you. The study will take approximately <strong>25 minutes</strong> to complete. You will receive at least <strong>$4.25</strong>. In addition, you can receive a bonus ranging between <strong>$0 and $3.75</strong> based on your performance in the study. Overall, you can receive up to <strong>$8</strong> on Prolific.</p>
        <p>There are no anticipated risks associated with participating in this study. There are no direct benefits to you for taking part in this study. The effects of participating should be comparable to those you would ordinarily experience from viewing a computer monitor and using a mouse or keyboard for a similar amount of time. At the end of the study, we will provide an explanation of the questions that motivate this line of research and will describe the potential implications.</p>
        <p>Your participation in this study is completely voluntary and you may refuse to participate or you may choose to withdraw at any time without penalty or loss of benefits to which you are otherwise entitled.</p>
        <p>Your participation in this study will remain confidential. No personally identifiable information will be associated with your data. All participants' answers will be aggregated, so your individual responses will not be analyzed (except for any feedback you choose to provide). Please do not enter any sensitive or personally identifiable information in a free text answer.</p>
        <p>If you have questions or concerns about your participation or payment or want to request a summary of research findings, please contact the student conducting this research: <a href=""mailto:ariellevy@g.harvard.edu"">Ariel Levy</a>. For any other problems related to this study, you may also contact the faculty member supervising this work: <a href=""mailto:cushman@fas.harvard.edu"">Fiery Cushman</a>. For questions, concerns, suggestions, or complaints that have not been or cannot be addressed by the researcher, or to report research-related harm, please contact the Committee on the Use of Human Subjects in Research at Harvard University by phone at 617-496-2847 or by <a href=""mailto:cuhs@harvard.edu"">email</a>. Please print or save a copy of this form for your records.</p>
      </div>",0,instructions,,,,,,,,,,,,,,,,,PVNK7
,,,,,html-button-response,2,28290,0.0-2.0,1,0.1538461538461538,Certain,"[[0.8,0.2,0],[0,0.8,0.2],[0.2,0,0.8]]",0,6.5,21415.0,"
    <div style=""max-width: 800px; margin: 0 auto;"">
      <img src='img/misthaven.png' width='800' height='auto'></img>
      <h3>Welcome to Misthaven!</h3>
      <p>You've just moved to Misthaven, a charming lake town where fishing is the heart of the local economy. While you don't have any prior fishing experience, <strong>you know that becoming a successful fisher is crucial for your new life here.</strong></p>
      <p>To become successful, you need to know which fish fetch the best price in the market on any given day, and which boats give you the best chance of catching those fish. </p>
    </div>",0,welcome,,,,,,,,,,,,,,,,,PVNK7
,,,,,html-button-response,3,67924,0.0-3.0,1,0.1538461538461538,Certain,"[[0.8,0.2,0],[0,0.8,0.2],[0.2,0,0.8]]",0,6.5,39633.0,"
    <div style=""max-width: 900px; margin: 0 auto;"">
      <h3>The Fish of Misthaven Lake</h3>
      <p>Three species of fish make their home in different parts of Misthaven's waters:</p>
      
      <div style=""display: flex; justify-content: space-around; margin: 20px 0;"">
        <div style=""text-align: center;"">
          <img src='img/fish_blue.png' width='auto' height='180px'></img>
          <p><strong>Locona</strong></p>
        </div>
        <div style=""text-align: center;"">
          <img src='img/fish_green.png' width='auto' height='180px'></img>
          <p><strong>Addish</strong></p>
        </div>
        <div style=""text-align: center;"">
          <img src='img/fish_red.png' width='auto' height='180px'></img>
          <p><strong>Whuffey</strong></p>
        </div>
      </div>
      
      <p>The market value of these fish changes regularly. Each day, <strong>only one species brings a good price</strong> at the market. Experienced fishers know which fish is valuable on any given day and choose their fishing spots accordingly.</p>
      
      <p>The valuable fish species <strong>changes from time to time</strong>, as different fish become more in demand at the market.</p>
    </div>",0,fish_info,,,,,,,,,,,,,,,,,PVNK7
,,,,,html-button-response,4,93176,0.0-4.0,1,0.1538461538461538,Certain,"[[0.8,0.2,0],[0,0.8,0.2],[0.2,0,0.8]]",0,6.5,25251.0,"
    <div style=""max-width: 900px; margin: 0 auto;"">
      <h3>The Fishing Boats of Misthaven</h3>
      <p>Three types of boats are available at the harbor, each designed for different fishing grounds:</p>
      
      <div style=""display: flex; justify-content: space-around; margin: 20px 0;"">
        <div style=""text-align: center; width: 30%;"">
          <img src=""img/boat_wood.png"" width='250' height='auto'></img>
          <p><strong>The Wooden Boat</strong><br>
          Built for shallow reeds where Locona thrive<br>
          <span style=""font-size: 0.9em;"">
            80% chance for catching Locona<br>
            20% chance for catching Addish passing through
          </span></p>
        </div>

        <div style=""text-align: center; width: 30%;"">
          <img src=""img/boat_white.png"" width='250' height='auto'></img>
          <p><strong>The White Boat</strong><br>
          Perfect for deep waters where Addish gather<br>
          <span style=""font-size: 0.9em;"">
            80% chance for catching Addish<br>
            20% chance for catching Whuffey migrating through
          </span></p>
        </div>

        <div style=""text-align: center; width: 30%;"">
          <img src=""img/boat_metal.png"" width='250' height='auto'></img>
          <p><strong>The Metal Boat</strong><br>
          Designed for rocky outcrops where Whuffey hide<br>
          <span style=""font-size: 0.9em;"">
            80% chance for catching Whuffey<br>
            20% chance for catching Locona wandering through
          </span></p>
        </div>
      </div>

      <p>Each day, you'll need to choose your boat carefully. While each boat is best suited for catching a specific fish, it might also catch a second type that passes through those waters!</p>
    </div>",0,boat_info,,,,,,,,,,,,,,,,,PVNK7
,,,,,html-button-response,5,99921,0.0-5.0,1,0.1538461538461538,Certain,"[[0.8,0.2,0],[0,0.8,0.2],[0.2,0,0.8]]",0,6.5,6743.0,"
    <div style=""max-width: 900px; margin: 0 auto;"">
      <h3>Let's Start Your Fishing Training!</h3>
      <p>First, you'll learn how different boats help you catch different fish. In this phase:</p>
      <ul>
        <li>You'll be told which fish is valuable each day</li>
        <li>All three boats will be available</li>
        <li>You'll get immediate feedback on your catches</li>
      </ul>
      <p>Ready to start practicing?</p>
    </div>",0,,,,,,,,,,,,,,,,,,PVNK7
,,,,,fishBanditPlugin,6,113290,0.0-6.0,1,0.1538461538461538,Certain,"[[0.8,0.2,0],[0,0.8,0.2],[0.2,0,0.8]]",0,6.5,13368.10000000149,,1,fish_bandit_trial_1,train,training,low,gray,10.0,"[1,2,0]",1.0,White Boat,0.0,0.0,2.0,Whuffey,1.0,Addish,1.0,,PVNK7
,,,,,html-button-response,7,115630,0.0-7.0,1,0.1538461538461538,Certain,"[[0.8,0.2,0],[0,0.8,0.2],[0.2,0,0.8]]",0,6.5,2339.0,"
        <div class=""feedback-container"" style=""text-align: center;"">
          <h3>Fishing Results</h3>
          <div style=""text-align: center;"">
            <p>You caught: <strong>Whuffey</strong></p><br>
            <img src='img/fish_red.png' style='width: 150px; height: auto; margin: 10px;'></img>
          </div><p>You managed to sell your fish for <strong>0 coins</strong>.</p>
          <p>Overall, you have earned <strong>0 coins</strong>.</p></div>",0,feedback_1,,,,,,,,,,,,,,,,,PVNK7
,,,,,fishBanditPlugin,8,116630,0.0-8.0,1,0.1538461538461538,Certain,"[[0.8,0.2,0],[0,0.8,0.2],[0.2,0,0.8]]",0,6.5,999.5,,0,fish_bandit_trial_2,train,training,low,gray,10.0,"[2,1,0]",0.0,Wood Boat,0.0,0.0,0.0,Locona,1.0,Addish,2.0,,PVNK7
,,,,,html-button-response,9,118028,0.0-9.0,1,0.1538461538461538,Certain,"[[0.8,0.2,0],[0,0.8,0.2],[0.2,0,0.8]]",0,6.5,1397.0,"
        <div class=""feedback-container"" style=""text-align: center;"">
          <h3>Fishing Results</h3>
          <div style=""text-align: center;"">
            <p>You caught: <strong>Locona</strong></p><br>
            <img src='img/fish_blue.png' style='width: 150px; height: auto; margin: 10px;'></img>
          </div><p>You managed to sell your fish for <strong>0 coins</strong>.</p>
          <p>Overall, you have earned <strong>0 coins</strong>.</p></div>",0,feedback_2,,,,,,,,,,,,,,,,,PVNK7
,,,,,fishBanditPlugin,10,119074,0.0-10.0,1,0.1538461538461538,Certain,"[[0.8,0.2,0],[0,0.8,0.2],[0.2,0,0.8]]",0,6.5,1044.89999999851,,1,fish_bandit_trial_3,train,training,low,gray,10.0,"[0,2,1]",1.0,White Boat,10.0,10.0,1.0,Addish,1.0,Addish,3.0,,PVNK7
,,,,,html-button-response,11,120520,0.0-11.0,1,0.1538461538461538,Certain,"[[0.8,0.2,0],[0,0.8,0.2],[0.2,0,0.8]]",0,6.5,1446.0,"
        <div class=""feedback-container"" style=""text-align: center;"">
          <h3>Fishing Results</h3>
          <div style=""text-align: center;"">
            <p>You caught: <strong>Addish</strong></p><br>
            <img src='img/fish_green.png' style='width: 150px; height: auto; margin: 10px;'></img>
          </div><p>You managed to sell your fish for <strong>10 coins</strong>.</p>
          <p>Overall, you have earned <strong>10 coins</strong>.</p></div>",0,feedback_3,,,,,,,,,,,,,,,,,PVNK7
,,,,,html-button-response,12,128986,0.0-12.0,1,0.1538461538461538,Certain,"[[0.8,0.2,0],[0,0.8,0.2],[0.2,0,0.8]]",0,6.5,8465.0,"
     <div style=""max-width: 900px; margin: 0 auto;"">
      <h3>💰🎉 Festival Days! 🎉💰</h3>
      <img src='img/misthaven_festival.png' width='650' height='auto'></img>
      <p> Ordinarily, valuable fish sell in the market for 10 coins.  But Misthaven sometimes has festivals, and the price of fish is 10 times higher on those days!  Instead of making 10 coins for the best fish, you can make 100 coins!</p>
    </div>",0,festival_info,,,,,,,,,,,,,,,,,PVNK7
,,,,,fishBanditPlugin,13,132916,0.0-13.0,1,0.1538461538461538,Certain,"[[0.8,0.2,0],[0,0.8,0.2],[0.2,0,0.8]]",0,6.5,3929.20000000298,,1,fish_bandit_trial_4,train,training,high,deeppink,100.0,"[0,2,1]",1.0,White Boat,100.0,110.0,1.0,Addish,1.0,Addish,4.0,,PVNK7
,,,,,html-button-response,14,135276,0.0-14.0,1,0.1538461538461538,Certain,"[[0.8,0.2,0],[0,0.8,0.2],[0.2,0,0.8]]",0,6.5,2360.0,"
        <div class=""feedback-container"" style=""text-align: center;"">
          <h3>Fishing Results</h3>
          <div style=""text-align: center;"">
            <p>You caught: <strong>Addish</strong></p><br>
            <img src='img/fish_green.png' style='width: 150px; height: auto; margin: 10px;'></img>
          </div><p>You managed to sell your fish for <strong>100 coins</strong>.</p>
          <p>Overall, you have earned <strong>110 coins</strong>.</p></div>",0,feedback_4,,,,,,,,,,,,,,,,,PVNK7
,,,,,fishBanditPlugin,15,136580,0.0-15.0,1,0.1538461538461538,Certain,"[[0.8,0.2,0],[0,0.8,0.2],[0.2,0,0.8]]",0,6.5,1303.2000000029802,,1,fish_bandit_trial_5,train,training,high,deeppink,100.0,"[1,0,2]",1.0,White Boat,100.0,210.0,1.0,Addish,1.0,Addish,5.0,,PVNK7
,,,,,html-button-response,16,137704,0.0-16.0,1,0.1538461538461538,Certain,"[[0.8,0.2,0],[0,0.8,0.2],[0.2,0,0.8]]",0,6.5,1123.0,"
        <div class=""feedback-container"" style=""text-align: center;"">
          <h3>Fishing Results</h3>
          <div style=""text-align: center;"">
            <p>You caught: <strong>Addish</strong></p><br>
            <img src='img/fish_green.png' style='width: 150px; height: auto; margin: 10px;'></img>
          </div><p>You managed to sell your fish for <strong>100 coins</strong>.</p>
          <p>Overall, you have earned <strong>210 coins</strong>.</p></div>",0,feedback_5,,,,,,,,,,,,,,,,,PVNK7
,,,,,fishBanditPlugin,17,138899,0.0-17.0,1,0.1538461538461538,Certain,"[[0.8,0.2,0],[0,0.8,0.2],[0.2,0,0.8]]",0,6.5,1193.9000000022352,,1,fish_bandit_trial_6,train,training,high,deeppink,100.0,"[2,0,1]",1.0,White Boat,100.0,310.0,1.0,Addish,1.0,Addish,6.0,,PVNK7
,,,,,html-button-response,18,140274,0.0-18.0,1,0.1538461538461538,Certain,"[[0.8,0.2,0],[0,0.8,0.2],[0.2,0,0.8]]",0,6.5,1375.0,"
        <div class=""feedback-container"" style=""text-align: center;"">
          <h3>Fishing Results</h3>
          <div style=""text-align: center;"">
            <p>You caught: <strong>Addish</strong></p><br>
            <img src='img/fish_green.png' style='width: 150px; height: auto; margin: 10px;'></img>
          </div><p>You managed to sell your fish for <strong>100 coins</strong>.</p>
          <p>Overall, you have earned <strong>310 coins</strong>.</p></div>",0,feedback_6,,,,,,,,,,,,,,,,,PVNK7
,,,,,html-button-response,19,153377,0.0-19.0,1,0.1538461538461538,Certain,"[[0.8,0.2,0],[0,0.8,0.2],[0.2,0,0.8]]",0,6.5,13102.0,"
    <div style=""max-width: 900px; margin: 0 auto;"">
      <h3>Well Done! Now For Your Next Challenge</h3>
      <p>In Misthaven, not all boats are always available. Sometimes boats are out for maintenance, or already rented by other fishers.</p>
      <p>In this phase:</p>
      <ul>
        <li>You'll still know which fish is valuable</li>
        <li>Only two boats will be available each day</li>
        <li>You'll continue to get immediate feedback</li>
      </ul>
      <p>Ready to practice with limited boat availability?</p>
    </div>",0,,,,,,,,,,,,,,,,,,PVNK7
,,,,,fishBanditPlugin,20,156174,0.0-20.0,1,0.1538461538461538,Certain,"[[0.8,0.2,0],[0,0.8,0.2],[0.2,0,0.8]]",0,6.5,2796.300000000745,,2,fish_bandit_trial_7,train,training,low,gray,10.0,"[0,2]",2.0,Metal Boat,10.0,320.0,2.0,Whuffey,2.0,Whuffey,7.0,,PVNK7
,,,,,html-button-response,21,157392,0.0-21.0,1,0.1538461538461538,Certain,"[[0.8,0.2,0],[0,0.8,0.2],[0.2,0,0.8]]",0,6.5,1217.0,"
        <div class=""feedback-container"" style=""text-align: center;"">
          <h3>Fishing Results</h3>
          <div style=""text-align: center;"">
            <p>You caught: <strong>Whuffey</strong></p><br>
            <img src='img/fish_red.png' style='width: 150px; height: auto; margin: 10px;'></img>
          </div><p>You managed to sell your fish for <strong>10 coins</strong>.</p>
          <p>Overall, you have earned <strong>320 coins</strong>.</p></div>",0,feedback_7,,,,,,,,,,,,,,,,,PVNK7
,,,,,fishBanditPlugin,22,160214,0.0-22.0,1,0.1538461538461538,Certain,"[[0.8,0.2,0],[0,0.8,0.2],[0.2,0,0.8]]",0,6.5,2821.5,,2,fish_bandit_trial_8,train,training,low,gray,10.0,"[2,1]",2.0,Metal Boat,0.0,320.0,0.0,Locona,2.0,Whuffey,8.0,,PVNK7
,,,,,html-button-response,23,161416,0.0-23.0,1,0.1538461538461538,Certain,"[[0.8,0.2,0],[0,0.8,0.2],[0.2,0,0.8]]",0,6.5,1201.0,"
        <div class=""feedback-container"" style=""text-align: center;"">
          <h3>Fishing Results</h3>
          <div style=""text-align: center;"">
            <p>You caught: <strong>Locona</strong></p><br>
            <img src='img/fish_blue.png' style='width: 150px; height: auto; margin: 10px;'></img>
          </div><p>You managed to sell your fish for <strong>0 coins</strong>.</p>
          <p>Overall, you have earned <strong>320 coins</strong>.</p></div>",0,feedback_8,,,,,,,,,,,,,,,,,PVNK7
,,,,,fishBanditPlugin,24,162454,0.0-24.0,1,0.1538461538461538,Certain,"[[0.8,0.2,0],[0,0.8,0.2],[0.2,0,0.8]]",0,6.5,1037.300000000745,,2,fish_bandit_trial_9,train,training,low,gray,10.0,"[2,0]",2.0,Metal Boat,10.0,330.0,2.0,Whuffey,2.0,Whuffey,9.0,,PVNK7
,,,,,html-button-response,25,164428,0.0-25.0,1,0.1538461538461538,Certain,"[[0.8,0.2,0],[0,0.8,0.2],[0.2,0,0.8]]",0,6.5,1973.0,"
        <div class=""feedback-container"" style=""text-align: center;"">
          <h3>Fishing Results</h3>
          <div style=""text-align: center;"">
            <p>You caught: <strong>Whuffey</strong></p><br>
            <img src='img/fish_red.png' style='width: 150px; height: auto; margin: 10px;'></img>
          </div><p>You managed to sell your fish for <strong>10 coins</strong>.</p>
          <p>Overall, you have earned <strong>330 coins</strong>.</p></div>",0,feedback_9,,,,,,,,,,,,,,,,,PVNK7
,,,,,fishBanditPlugin,26,165497,0.0-26.0,1,0.1538461538461538,Certain,"[[0.8,0.2,0],[0,0.8,0.2],[0.2,0,0.8]]",0,6.5,1067.10000000149,,1,fish_bandit_trial_10,train,training,low,gray,10.0,"[2,1]",1.0,White Boat,10.0,340.0,2.0,Whuffey,2.0,Whuffey,10.0,,PVNK7
,,,,,html-button-response,27,166574,0.0-27.0,1,0.1538461538461538,Certain,"[[0.8,0.2,0],[0,0.8,0.2],[0.2,0,0.8]]",0,6.5,1077.0,"
        <div class=""feedback-container"" style=""text-align: center;"">
          <h3>Fishing Results</h3>
          <div style=""text-align: center;"">
            <p>You caught: <strong>Whuffey</strong></p><br>
            <img src='img/fish_red.png' style='width: 150px; height: auto; margin: 10px;'></img>
          </div><p>You managed to sell your fish for <strong>10 coins</strong>.</p>
          <p>Overall, you have earned <strong>340 coins</strong>.</p></div>",0,feedback_10,,,,,,,,,,,,,,,,,PVNK7
,,,,,fishBanditPlugin,28,167870,0.0-28.0,1,0.1538461538461538,Certain,"[[0.8,0.2,0],[0,0.8,0.2],[0.2,0,0.8]]",0,6.5,1295.0,,1,fish_bandit_trial_11,train,training,low,gray,10.0,"[1,0]",1.0,White Boat,0.0,340.0,1.0,Addish,2.0,Whuffey,11.0,,PVNK7
,,,,,html-button-response,29,169043,0.0-29.0,1,0.1538461538461538,Certain,"[[0.8,0.2,0],[0,0.8,0.2],[0.2,0,0.8]]",0,6.5,1172.0,"
        <div class=""feedback-container"" style=""text-align: center;"">
          <h3>Fishing Results</h3>
          <div style=""text-align: center;"">
            <p>You caught: <strong>Addish</strong></p><br>
            <img src='img/fish_green.png' style='width: 150px; height: auto; margin: 10px;'></img>
          </div><p>You managed to sell your fish for <strong>0 coins</strong>.</p>
          <p>Overall, you have earned <strong>340 coins</strong>.</p></div>",0,feedback_11,,,,,,,,,,,,,,,,,PVNK7
,,,,,fishBanditPlugin,30,170032,0.0-30.0,1,0.1538461538461538,Certain,"[[0.8,0.2,0],[0,0.8,0.2],[0.2,0,0.8]]",0,6.5,989.0999999977648,,2,fish_bandit_trial_12,train,training,low,gray,10.0,"[0,2]",2.0,Metal Boat,0.0,340.0,0.0,Locona,2.0,Whuffey,12.0,,PVNK7
,,,,,html-button-response,31,171274,0.0-31.0,1,0.1538461538461538,Certain,"[[0.8,0.2,0],[0,0.8,0.2],[0.2,0,0.8]]",0,6.5,1241.0,"
        <div class=""feedback-container"" style=""text-align: center;"">
          <h3>Fishing Results</h3>
          <div style=""text-align: center;"">
            <p>You caught: <strong>Locona</strong></p><br>
            <img src='img/fish_blue.png' style='width: 150px; height: auto; margin: 10px;'></img>
          </div><p>You managed to sell your fish for <strong>0 coins</strong>.</p>
          <p>Overall, you have earned <strong>340 coins</strong>.</p></div>",0,feedback_12,,,,,,,,,,,,,,,,,PVNK7
,,,,,fishBanditPlugin,32,172444,0.0-32.0,1,0.1538461538461538,Certain,"[[0.8,0.2,0],[0,0.8,0.2],[0.2,0,0.8]]",0,6.5,1168.60000000149,,2,fish_bandit_trial_13,train,training,low,gray,10.0,"[2,1]",2.0,Metal Boat,0.0,340.0,2.0,Whuffey,1.0,Addish,13.0,,PVNK7
,,,,,html-button-response,33,173560,0.0-33.0,1,0.1538461538461538,Certain,"[[0.8,0.2,0],[0,0.8,0.2],[0.2,0,0.8]]",0,6.5,1116.0,"
        <div class=""feedback-container"" style=""text-align: center;"">
          <h3>Fishing Results</h3>
          <div style=""text-align: center;"">
            <p>You caught: <strong>Whuffey</strong></p><br>
            <img src='img/fish_red.png' style='width: 150px; height: auto; margin: 10px;'></img>
          </div><p>You managed to sell your fish for <strong>0 coins</strong>.</p>
          <p>Overall, you have earned <strong>340 coins</strong>.</p></div>",0,feedback_13,,,,,,,,,,,,,,,,,PVNK7
,,,,,fishBanditPlugin,34,174363,0.0-34.0,1,0.1538461538461538,Certain,"[[0.8,0.2,0],[0,0.8,0.2],[0.2,0,0.8]]",0,6.5,802.0,,1,fish_bandit_trial_14,train,training,low,gray,10.0,"[1,0]",1.0,White Boat,0.0,340.0,2.0,Whuffey,1.0,Addish,14.0,,PVNK7
,,,,,html-button-response,35,175132,0.0-35.0,1,0.1538461538461538,Certain,"[[0.8,0.2,0],[0,0.8,0.2],[0.2,0,0.8]]",0,6.5,769.0,"
        <div class=""feedback-container"" style=""text-align: center;"">
          <h3>Fishing Results</h3>
          <div style=""text-align: center;"">
            <p>You caught: <strong>Whuffey</strong></p><br>
            <img src='img/fish_red.png' style='width: 150px; height: auto; margin: 10px;'></img>
          </div><p>You managed to sell your fish for <strong>0 coins</strong>.</p>
          <p>Overall, you have earned <strong>340 coins</strong>.</p></div>",0,feedback_14,,,,,,,,,,,,,,,,,PVNK7
,,,,,fishBanditPlugin,36,175974,0.0-36.0,1,0.1538461538461538,Certain,"[[0.8,0.2,0],[0,0.8,0.2],[0.2,0,0.8]]",0,6.5,841.2999999970198,,2,fish_bandit_trial_15,train,training,low,gray,10.0,"[1,2]",2.0,Metal Boat,0.0,340.0,2.0,Whuffey,1.0,Addish,15.0,,PVNK7
,,,,,html-button-response,37,177286,0.0-37.0,1,0.1538461538461538,Certain,"[[0.8,0.2,0],[0,0.8,0.2],[0.2,0,0.8]]",0,6.5,1312.0,"
        <div class=""feedback-container"" style=""text-align: center;"">
          <h3>Fishing Results</h3>
          <div style=""text-align: center;"">
            <p>You caught: <strong>Whuffey</strong></p><br>
            <img src='img/fish_red.png' style='width: 150px; height: auto; margin: 10px;'></img>
          </div><p>You managed to sell your fish for <strong>0 coins</strong>.</p>
          <p>Overall, you have earned <strong>340 coins</strong>.</p></div>",0,feedback_15,,,,,,,,,,,,,,,,,PVNK7
,,,,,fishBanditPlugin,38,178182,0.0-38.0,1,0.1538461538461538,Certain,"[[0.8,0.2,0],[0,0.8,0.2],[0.2,0,0.8]]",0,6.5,895.1000000014901,,1,fish_bandit_trial_16,train,training,low,gray,10.0,"[1,0]",1.0,White Boat,10.0,350.0,1.0,Addish,1.0,Addish,16.0,,PVNK7
,,,,,html-button-response,39,179786,0.0-39.0,1,0.1538461538461538,Certain,"[[0.8,0.2,0],[0,0.8,0.2],[0.2,0,0.8]]",0,6.5,1604.0,"
        <div class=""feedback-container"" style=""text-align: center;"">
          <h3>Fishing Results</h3>
          <div style=""text-align: center;"">
            <p>You caught: <strong>Addish</strong></p><br>
            <img src='img/fish_green.png' style='width: 150px; height: auto; margin: 10px;'></img>
          </div><p>You managed to sell your fish for <strong>10 coins</strong>.</p>
          <p>Overall, you have earned <strong>350 coins</strong>.</p></div>",0,feedback_16,,,,,,,,,,,,,,,,,PVNK7
,,,,,fishBanditPlugin,40,181970,0.0-40.0,1,0.1538461538461538,Certain,"[[0.8,0.2,0],[0,0.8,0.2],[0.2,0,0.8]]",0,6.5,2183.60000000149,,1,fish_bandit_trial_17,train,training,low,gray,10.0,"[1,2]",1.0,White Boat,10.0,360.0,1.0,Addish,1.0,Addish,17.0,,PVNK7
,,,,,html-button-response,41,183881,0.0-41.0,1,0.1538461538461538,Certain,"[[0.8,0.2,0],[0,0.8,0.2],[0.2,0,0.8]]",0,6.5,1910.0,"
        <div class=""feedback-container"" style=""text-align: center;"">
          <h3>Fishing Results</h3>
          <div style=""text-align: center;"">
            <p>You caught: <strong>Addish</strong></p><br>
            <img src='img/fish_green.png' style='width: 150px; height: auto; margin: 10px;'></img>
          </div><p>You managed to sell your fish for <strong>10 coins</strong>.</p>
          <p>Overall, you have earned <strong>360 coins</strong>.</p></div>",0,feedback_17,,,,,,,,,,,,,,,,,PVNK7
,,,,,fishBanditPlugin,42,185313,0.0-42.0,1,0.1538461538461538,Certain,"[[0.8,0.2,0],[0,0.8,0.2],[0.2,0,0.8]]",0,6.5,1431.10000000149,,1,fish_bandit_trial_18,train,training,low,gray,10.0,"[1,0]",1.0,White Boat,10.0,370.0,1.0,Addish,1.0,Addish,18.0,,PVNK7
,,,,,html-button-response,43,186238,0.0-43.0,1,0.1538461538461538,Certain,"[[0.8,0.2,0],[0,0.8,0.2],[0.2,0,0.8]]",0,6.5,925.0,"
        <div class=""feedback-container"" style=""text-align: center;"">
          <h3>Fishing Results</h3>
          <div style=""text-align: center;"">
            <p>You caught: <strong>Addish</strong></p><br>
            <img src='img/fish_green.png' style='width: 150px; height: auto; margin: 10px;'></img>
          </div><p>You managed to sell your fish for <strong>10 coins</strong>.</p>
          <p>Overall, you have earned <strong>370 coins</strong>.</p></div>",0,feedback_18,,,,,,,,,,,,,,,,,PVNK7
,,,,,html-button-response,44,213504,0.0-44.0,1,0.1538461538461538,Certain,"[[0.8,0.2,0],[0,0.8,0.2],[0.2,0,0.8]]",0,6.5,27265.0,"
    <div style=""max-width: 900px; margin: 0 auto;"">
      <h3>Meet Allie, Your Fishing Mentor!</h3>
      <img src='img/misthaven_fisher.png' style='width: 200px; height: auto;'></img>
      <p>This is Allie, one of Misthaven's most experienced fishers. She has been fishing these waters for decades and knows exactly which fish is valuable each day. </p>
      <p>For the next few trials:</p>
      <ul>
        <li>You'll accompany Allie on her fishing trips</li>
        <li>You'll know which fish is valuable</li>
        <li>You'll see which boat Allie chooses</li>
        <li>You'll learn from her expertise</li>
      </ul>
      <p>Ready to learn from Allie?</p>
    </div>",0,,,,,,,,,,,,,,,,,,PVNK7
,,,,,fishBanditPlugin,45,221595,0.0-45.0,1,0.1538461538461538,Certain,"[[0.8,0.2,0],[0,0.8,0.2],[0.2,0,0.8]]",0,6.5,,,2,fish_bandit_trial_19,observe,training,high,grey,10.0,"[1,2]",2.0,Metal Boat,,,2.0,Whuffey,0.0,Locona,19.0,,PVNK7
,,,,,html-button-response,46,223425,0.0-46.0,1,0.1538461538461538,Certain,"[[0.8,0.2,0],[0,0.8,0.2],[0.2,0,0.8]]",0,6.5,1828.0,"
        <div class=""feedback-container"" style=""text-align: center;"">
          <h3>Fishing Results</h3>
          <div style=""text-align: center;"">
            <p>Allie caught: <strong>Whuffey</strong></p><br>
            <img src='img/fish_red.png' style='width: 150px; height: auto; margin: 10px;'></img>
          </div></div>",0,feedback_19,,,,,,,,,,,,,,,,,PVNK7
,,,,,fishBanditPlugin,47,227945,0.0-47.0,1,0.1538461538461538,Certain,"[[0.8,0.2,0],[0,0.8,0.2],[0.2,0,0.8]]",0,6.5,,,0,fish_bandit_trial_20,observe,training,high,grey,10.0,"[2,0]",0.0,Wood Boat,,,0.0,Locona,0.0,Locona,20.0,,PVNK7
,,,,,html-button-response,48,228974,0.0-48.0,1,0.1538461538461538,Certain,"[[0.8,0.2,0],[0,0.8,0.2],[0.2,0,0.8]]",0,6.5,1029.0,"
        <div class=""feedback-container"" style=""text-align: center;"">
          <h3>Fishing Results</h3>
          <div style=""text-align: center;"">
            <p>Allie caught: <strong>Locona</strong></p><br>
            <img src='img/fish_blue.png' style='width: 150px; height: auto; margin: 10px;'></img>
          </div></div>",0,feedback_20,,,,,,,,,,,,,,,,,PVNK7
,,,,,fishBanditPlugin,49,232856,0.0-49.0,1,0.1538461538461538,Certain,"[[0.8,0.2,0],[0,0.8,0.2],[0.2,0,0.8]]",0,6.5,,,2,fish_bandit_trial_21,observe,training,high,grey,10.0,"[2,1]",2.0,Metal Boat,,,2.0,Whuffey,0.0,Locona,21.0,,PVNK7
,,,,,html-button-response,50,233972,0.0-50.0,1,0.1538461538461538,Certain,"[[0.8,0.2,0],[0,0.8,0.2],[0.2,0,0.8]]",0,6.5,1116.0,"
        <div class=""feedback-container"" style=""text-align: center;"">
          <h3>Fishing Results</h3>
          <div style=""text-align: center;"">
            <p>Allie caught: <strong>Whuffey</strong></p><br>
            <img src='img/fish_red.png' style='width: 150px; height: auto; margin: 10px;'></img>
          </div></div>",0,feedback_21,,,,,,,,,,,,,,,,,PVNK7
,,,,,fishBanditPlugin,51,238147,0.0-51.0,1,0.1538461538461538,Certain,"[[0.8,0.2,0],[0,0.8,0.2],[0.2,0,0.8]]",0,6.5,,,0,fish_bandit_trial_22,observe,training,high,grey,10.0,"[2,0]",0.0,Wood Boat,,,0.0,Locona,0.0,Locona,22.0,,PVNK7
,,,,,html-button-response,52,239042,0.0-52.0,1,0.1538461538461538,Certain,"[[0.8,0.2,0],[0,0.8,0.2],[0.2,0,0.8]]",0,6.5,894.0,"
        <div class=""feedback-container"" style=""text-align: center;"">
          <h3>Fishing Results</h3>
          <div style=""text-align: center;"">
            <p>Allie caught: <strong>Locona</strong></p><br>
            <img src='img/fish_blue.png' style='width: 150px; height: auto; margin: 10px;'></img>
          </div></div>",0,feedback_22,,,,,,,,,,,,,,,,,PVNK7
,,,,,html-button-response,53,240252,0.0-53.0,1,0.1538461538461538,Certain,"[[0.8,0.2,0],[0,0.8,0.2],[0.2,0,0.8]]",0,6.5,1210.0,"
    <div style=""max-width: 900px; margin: 0 auto;"">
      <h3>Training Complete!</h3>
      <p>You've completed your training. Let's check your understanding before we continue to the fishing task!</p>
    </div>",0,,,,,,,,,,,,,,,,,,PVNK7
,,,,,survey,54,265711,0.0-54.0-0.0,1,0.1538461538461538,Certain,"[[0.8,0.2,0],[0,0.8,0.2],[0.2,0,0.8]]",0,6.5,25426.0,,"{""pink_frame_value"":""100 coins"",""fish_change_frequency"":""Every day"",""alternative_boat"":""The Metal Boat, because it can sometimes catch Locona when fishing for Whuffey""}",comprehension_check,,,,,,,,,,,,,,,,[],PVNK7
,,,,,html-button-response,55,267324,0.0-54.0-1.0,1,0.1538461538461538,Certain,"[[0.8,0.2,0],[0,0.8,0.2],[0.2,0,0.8]]",0,6.5,1612.0,"
            <div style=""max-width: 900px; margin: 0 auto;"">
              <h3>Let's Try Again</h3>
              <p>Some of your answers weren't quite right. Please review:</p>
              <ul>
                
                <li>The valuable fish changes every few days</li>
                
              </ul>
            </div>",0,,,,,,,,,,,,,,,,,,PVNK7
,,,,,survey,56,284559,0.0-54.1-0.1,1,0.1538461538461538,Certain,"[[0.8,0.2,0],[0,0.8,0.2],[0.2,0,0.8]]",0,6.5,17224.0,,"{""pink_frame_value"":""100 coins"",""fish_change_frequency"":""Every few days"",""alternative_boat"":""The Metal Boat, because it can sometimes catch Locona when fishing for Whuffey""}",comprehension_check,,,,,,,,,,,,,,,,[],PVNK7
,,,,,html-button-response,57,285858,0.0-54.1-1.1,1,0.1538461538461538,Certain,"[[0.8,0.2,0],[0,0.8,0.2],[0.2,0,0.8]]",0,6.5,1299.0,"
            <div style=""max-width: 900px; margin: 0 auto;"">
              <h3>Great job!</h3>
              <p>You've correctly answered all the questions. Let's continue with the experiment.</p>
            </div>",0,,,,,,,,,,,,,,,,,,PVNK7
,,,,,html-button-response,58,316663,0.0-55.0,1,0.1538461538461538,Certain,"[[0.8,0.2,0],[0,0.8,0.2],[0.2,0,0.8]]",0,6.5,30804.0,"
    <div style=""max-width: 900px; margin: 0 auto;"">
      <h3>Ready for the Real Challenge!</h3>
      <p>You've completed your training and now it's time to put your skills to the test. In this phase:</p>
      <ul>
        <li><strong>Your earnings will determine your bonus payment at the end of the study – every 650 coins will earn you $1 bonus!</strong></li>
        <li>You won't know which fish is valuable (but Allie will)</li>
        <li>Sometimes you'll watch Allie's choice, sometimes you'll fish on your own</li>
        <li>You won't see your earnings during the trial, but you'll see them during the breaks and at the end</li>
      </ul>
      <p>Remember:
      <ul>
        <li>Not all boats are always available! Whenever Allie is fishing, only two boats will be available for her to choose from!</li>
        <li>Allie always knows which fish is valuable</li>
        <li>The valuable fish changes every few days</li>
      </ul>
      <p>Ready to start fishing?</p>
    </div>",0,,,,,,,,,,,,,,,,,,PVNK7
,,,,,html-button-response,59,318706,0.0-56.0,1,0.1538461538461538,Certain,"[[0.8,0.2,0],[0,0.8,0.2],[0.2,0,0.8]]",0,6.5,2043.0,"
    <div style=""max-width: 900px; margin: 0 auto;"">
      <h3>Routine Days</h3>
      <img src='img/misthaven_routine.png' width='650' height='auto'></img>
      <p>The following days are routine days. The valuable fish is worth 10 coins.</p>
    </div>",0,routine_start,,,,,,,,,,,,,,,,,PVNK7
,,,,,fishBanditPlugin,60,324600,0.0-57.0,1,0.1538461538461538,Certain,"[[0.8,0.2,0],[0,0.8,0.2],[0.2,0,0.8]]",0,6.5,,,0,fish_bandit_trial_1,observe,experimental,low,gray,10.0,"[0,2]",0.0,Wood Boat,,,0.0,Locona,1.0,Addish,1.0,,PVNK7
,,,,,html-button-response,61,325968,0.0-58.0,1,0.1538461538461538,Certain,"[[0.8,0.2,0],[0,0.8,0.2],[0.2,0,0.8]]",0,6.5,1367.0,"
        <div class=""feedback-container"" style=""text-align: center;"">
          <h3>Fishing Results</h3>
          <div style=""text-align: center;"">
            <p>Allie caught: <strong>Locona</strong></p><br>
            <img src='img/fish_blue.png' style='width: 150px; height: auto; margin: 10px;'></img>
          </div></div>",0,feedback_1,,,,,,,,,,,,,,,,,PVNK7
,,,,,fishBanditPlugin,62,331169,0.0-59.0,1,0.1538461538461538,Certain,"[[0.8,0.2,0],[0,0.8,0.2],[0.2,0,0.8]]",0,6.5,,,1,fish_bandit_trial_2,observe,experimental,low,gray,10.0,"[1,2]",1.0,White Boat,,,1.0,Addish,1.0,Addish,2.0,,PVNK7
,,,,,html-button-response,63,332290,0.0-60.0,1,0.1538461538461538,Certain,"[[0.8,0.2,0],[0,0.8,0.2],[0.2,0,0.8]]",0,6.5,1120.0,"
        <div class=""feedback-container"" style=""text-align: center;"">
          <h3>Fishing Results</h3>
          <div style=""text-align: center;"">
            <p>Allie caught: <strong>Addish</strong></p><br>
            <img src='img/fish_green.png' style='width: 150px; height: auto; margin: 10px;'></img>
          </div></div>",0,feedback_2,,,,,,,,,,,,,,,,,PVNK7
,,,,,fishBanditPlugin,64,336775,0.0-61.0,1,0.1538461538461538,Certain,"[[0.8,0.2,0],[0,0.8,0.2],[0.2,0,0.8]]",0,6.5,,,0,fish_bandit_trial_3,observe,experimental,low,gray,10.0,"[0,2]",0.0,Wood Boat,,,0.0,Locona,1.0,Addish,3.0,,PVNK7
,,,,,html-button-response,65,337924,0.0-62.0,1,0.1538461538461538,Certain,"[[0.8,0.2,0],[0,0.8,0.2],[0.2,0,0.8]]",0,6.5,1148.0,"
        <div class=""feedback-container"" style=""text-align: center;"">
          <h3>Fishing Results</h3>
          <div style=""text-align: center;"">
            <p>Allie caught: <strong>Locona</strong></p><br>
            <img src='img/fish_blue.png' style='width: 150px; height: auto; margin: 10px;'></img>
          </div></div>",0,feedback_3,,,,,,,,,,,,,,,,,PVNK7
,,,,,fishBanditPlugin,66,340220,0.0-63.0,1,0.1538461538461538,Certain,"[[0.8,0.2,0],[0,0.8,0.2],[0.2,0,0.8]]",0,6.5,2295.199999999255,,1,fish_bandit_trial_4,play,experimental,low,gray,10.0,"[0,1]",1.0,White Boat,10.0,10.0,1.0,Addish,1.0,Addish,4.0,,PVNK7
,,,,,html-button-response,67,341312,0.0-64.0,1,0.1538461538461538,Certain,"[[0.8,0.2,0],[0,0.8,0.2],[0.2,0,0.8]]",0,6.5,1091.0,"
        <div class=""feedback-container"" style=""text-align: center;"">
          <h3>Fishing Results</h3>
          <div style=""text-align: center;"">
            <p>You caught: <strong>Addish</strong></p><br>
            <img src='img/fish_green.png' style='width: 150px; height: auto; margin: 10px;'></img>
          </div></div>",0,feedback_4,,,,,,,,,,,,,,,,,PVNK7
,,,,,fishBanditPlugin,68,346249,0.0-65.0,1,0.1538461538461538,Certain,"[[0.8,0.2,0],[0,0.8,0.2],[0.2,0,0.8]]",0,6.5,,,1,fish_bandit_trial_5,observe,experimental,low,gray,10.0,"[0,1]",1.0,White Boat,,,1.0,Addish,1.0,Addish,5.0,,PVNK7
,,,,,html-button-response,69,347278,0.0-66.0,1,0.1538461538461538,Certain,"[[0.8,0.2,0],[0,0.8,0.2],[0.2,0,0.8]]",0,6.5,1028.0,"
        <div class=""feedback-container"" style=""text-align: center;"">
          <h3>Fishing Results</h3>
          <div style=""text-align: center;"">
            <p>Allie caught: <strong>Addish</strong></p><br>
            <img src='img/fish_green.png' style='width: 150px; height: auto; margin: 10px;'></img>
          </div></div>",0,feedback_5,,,,,,,,,,,,,,,,,PVNK7
,,,,,fishBanditPlugin,70,348608,0.0-67.0,1,0.1538461538461538,Certain,"[[0.8,0.2,0],[0,0.8,0.2],[0.2,0,0.8]]",0,6.5,1329.5,,1,fish_bandit_trial_6,play,experimental,low,gray,10.0,"[1,2]",1.0,White Boat,0.0,10.0,2.0,Whuffey,1.0,Addish,6.0,,PVNK7
,,,,,html-button-response,71,349802,0.0-68.0,1,0.1538461538461538,Certain,"[[0.8,0.2,0],[0,0.8,0.2],[0.2,0,0.8]]",0,6.5,1193.0,"
        <div class=""feedback-container"" style=""text-align: center;"">
          <h3>Fishing Results</h3>
          <div style=""text-align: center;"">
            <p>You caught: <strong>Whuffey</strong></p><br>
            <img src='img/fish_red.png' style='width: 150px; height: auto; margin: 10px;'></img>
          </div></div>",0,feedback_6,,,,,,,,,,,,,,,,,PVNK7
,,,,,fishBanditPlugin,72,353873,0.0-69.0,1,0.1538461538461538,Certain,"[[0.8,0.2,0],[0,0.8,0.2],[0.2,0,0.8]]",0,6.5,,,0,fish_bandit_trial_7,observe,experimental,low,gray,10.0,"[2,0]",0.0,Wood Boat,,,0.0,Locona,1.0,Addish,7.0,,PVNK7
,,,,,html-button-response,73,354990,0.0-70.0,1,0.1538461538461538,Certain,"[[0.8,0.2,0],[0,0.8,0.2],[0.2,0,0.8]]",0,6.5,1116.0,"
        <div class=""feedback-container"" style=""text-align: center;"">
          <h3>Fishing Results</h3>
          <div style=""text-align: center;"">
            <p>Allie caught: <strong>Locona</strong></p><br>
            <img src='img/fish_blue.png' style='width: 150px; height: auto; margin: 10px;'></img>
          </div></div>",0,feedback_7,,,,,,,,,,,,,,,,,PVNK7
,,,,,fishBanditPlugin,74,360243,0.0-71.0,1,0.1538461538461538,Certain,"[[0.8,0.2,0],[0,0.8,0.2],[0.2,0,0.8]]",0,6.5,,,2,fish_bandit_trial_8,observe,experimental,low,gray,10.0,"[2,1]",2.0,Metal Boat,,,2.0,Whuffey,2.0,Whuffey,8.0,,PVNK7
,,,,,html-button-response,75,361066,0.0-72.0,1,0.1538461538461538,Certain,"[[0.8,0.2,0],[0,0.8,0.2],[0.2,0,0.8]]",0,6.5,822.0,"
        <div class=""feedback-container"" style=""text-align: center;"">
          <h3>Fishing Results</h3>
          <div style=""text-align: center;"">
            <p>Allie caught: <strong>Whuffey</strong></p><br>
            <img src='img/fish_red.png' style='width: 150px; height: auto; margin: 10px;'></img>
          </div></div>",0,feedback_8,,,,,,,,,,,,,,,,,PVNK7
,,,,,fishBanditPlugin,76,363292,0.0-73.0,1,0.1538461538461538,Certain,"[[0.8,0.2,0],[0,0.8,0.2],[0.2,0,0.8]]",0,6.5,2225.099999997765,,0,fish_bandit_trial_9,play,experimental,low,gray,10.0,"[1,0]",0.0,Wood Boat,0.0,10.0,0.0,Locona,2.0,Whuffey,9.0,,PVNK7
,,,,,html-button-response,77,364464,0.0-74.0,1,0.1538461538461538,Certain,"[[0.8,0.2,0],[0,0.8,0.2],[0.2,0,0.8]]",0,6.5,1172.0,"
        <div class=""feedback-container"" style=""text-align: center;"">
          <h3>Fishing Results</h3>
          <div style=""text-align: center;"">
            <p>You caught: <strong>Locona</strong></p><br>
            <img src='img/fish_blue.png' style='width: 150px; height: auto; margin: 10px;'></img>
          </div></div>",0,feedback_9,,,,,,,,,,,,,,,,,PVNK7
,,,,,fishBanditPlugin,78,369109,0.0-75.0,1,0.1538461538461538,Certain,"[[0.8,0.2,0],[0,0.8,0.2],[0.2,0,0.8]]",0,6.5,,,2,fish_bandit_trial_10,observe,experimental,low,gray,10.0,"[1,2]",2.0,Metal Boat,,,0.0,Locona,2.0,Whuffey,10.0,,PVNK7
,,,,,html-button-response,79,370093,0.0-76.0,1,0.1538461538461538,Certain,"[[0.8,0.2,0],[0,0.8,0.2],[0.2,0,0.8]]",0,6.5,982.0,"
        <div class=""feedback-container"" style=""text-align: center;"">
          <h3>Fishing Results</h3>
          <div style=""text-align: center;"">
            <p>Allie caught: <strong>Locona</strong></p><br>
            <img src='img/fish_blue.png' style='width: 150px; height: auto; margin: 10px;'></img>
          </div></div>",0,feedback_10,,,,,,,,,,,,,,,,,PVNK7
,,,,,fishBanditPlugin,80,371664,0.0-77.0,1,0.1538461538461538,Certain,"[[0.8,0.2,0],[0,0.8,0.2],[0.2,0,0.8]]",0,6.5,1570.199999999255,,0,fish_bandit_trial_11,play,experimental,low,gray,10.0,"[1,0]",0.0,Wood Boat,0.0,10.0,0.0,Locona,2.0,Whuffey,11.0,,PVNK7
,,,,,html-button-response,81,372655,0.0-78.0,1,0.1538461538461538,Certain,"[[0.8,0.2,0],[0,0.8,0.2],[0.2,0,0.8]]",0,6.5,990.0,"
        <div class=""feedback-container"" style=""text-align: center;"">
          <h3>Fishing Results</h3>
          <div style=""text-align: center;"">
            <p>You caught: <strong>Locona</strong></p><br>
            <img src='img/fish_blue.png' style='width: 150px; height: auto; margin: 10px;'></img>
          </div></div>",0,feedback_11,,,,,,,,,,,,,,,,,PVNK7
,,,,,fishBanditPlugin,82,376628,0.0-79.0,1,0.1538461538461538,Certain,"[[0.8,0.2,0],[0,0.8,0.2],[0.2,0,0.8]]",0,6.5,,,2,fish_bandit_trial_12,observe,experimental,low,gray,10.0,"[0,2]",2.0,Metal Boat,,,2.0,Whuffey,2.0,Whuffey,12.0,,PVNK7
,,,,,html-button-response,83,377742,0.0-80.0,1,0.1538461538461538,Certain,"[[0.8,0.2,0],[0,0.8,0.2],[0.2,0,0.8]]",0,6.5,1114.0,"
        <div class=""feedback-container"" style=""text-align: center;"">
          <h3>Fishing Results</h3>
          <div style=""text-align: center;"">
            <p>Allie caught: <strong>Whuffey</strong></p><br>
            <img src='img/fish_red.png' style='width: 150px; height: auto; margin: 10px;'></img>
          </div></div>",0,feedback_12,,,,,,,,,,,,,,,,,PVNK7
,,,,,fishBanditPlugin,84,378684,0.0-81.0,1,0.1538461538461538,Certain,"[[0.8,0.2,0],[0,0.8,0.2],[0.2,0,0.8]]",0,6.5,940.60000000149,,2,fish_bandit_trial_13,play,experimental,low,gray,10.0,"[2,1]",2.0,Metal Boat,10.0,20.0,2.0,Whuffey,2.0,Whuffey,13.0,,PVNK7
,,,,,html-button-response,85,380492,0.0-82.0,1,0.1538461538461538,Certain,"[[0.8,0.2,0],[0,0.8,0.2],[0.2,0,0.8]]",0,6.5,1808.0,"
        <div class=""feedback-container"" style=""text-align: center;"">
          <h3>Fishing Results</h3>
          <div style=""text-align: center;"">
            <p>You caught: <strong>Whuffey</strong></p><br>
            <img src='img/fish_red.png' style='width: 150px; height: auto; margin: 10px;'></img>
          </div></div>",0,feedback_13,,,,,,,,,,,,,,,,,PVNK7
,,,,,fishBanditPlugin,86,385360,0.0-83.0,1,0.1538461538461538,Certain,"[[0.8,0.2,0],[0,0.8,0.2],[0.2,0,0.8]]",0,6.5,,,0,fish_bandit_trial_14,observe,experimental,low,gray,10.0,"[1,0]",0.0,Wood Boat,,,1.0,Addish,0.0,Locona,14.0,,PVNK7
,,,,,html-button-response,87,386962,0.0-84.0,1,0.1538461538461538,Certain,"[[0.8,0.2,0],[0,0.8,0.2],[0.2,0,0.8]]",0,6.5,1602.0,"
        <div class=""feedback-container"" style=""text-align: center;"">
          <h3>Fishing Results</h3>
          <div style=""text-align: center;"">
            <p>Allie caught: <strong>Addish</strong></p><br>
            <img src='img/fish_green.png' style='width: 150px; height: auto; margin: 10px;'></img>
          </div></div>",0,feedback_14,,,,,,,,,,,,,,,,,PVNK7
,,,,,fishBanditPlugin,88,388684,0.0-85.0,1,0.1538461538461538,Certain,"[[0.8,0.2,0],[0,0.8,0.2],[0.2,0,0.8]]",0,6.5,1721.0,,0,fish_bandit_trial_15,play,experimental,low,gray,10.0,"[0,2]",0.0,Wood Boat,10.0,30.0,0.0,Locona,0.0,Locona,15.0,,PVNK7
,,,,,html-button-response,89,390407,0.0-86.0,1,0.1538461538461538,Certain,"[[0.8,0.2,0],[0,0.8,0.2],[0.2,0,0.8]]",0,6.5,1722.0,"
        <div class=""feedback-container"" style=""text-align: center;"">
          <h3>Fishing Results</h3>
          <div style=""text-align: center;"">
            <p>You caught: <strong>Locona</strong></p><br>
            <img src='img/fish_blue.png' style='width: 150px; height: auto; margin: 10px;'></img>
          </div></div>",0,feedback_15,,,,,,,,,,,,,,,,,PVNK7
,,,,,fishBanditPlugin,90,395016,0.0-87.0,1,0.1538461538461538,Certain,"[[0.8,0.2,0],[0,0.8,0.2],[0.2,0,0.8]]",0,6.5,,,2,fish_bandit_trial_16,observe,experimental,low,gray,10.0,"[2,1]",2.0,Metal Boat,,,0.0,Locona,0.0,Locona,16.0,,PVNK7
,,,,,html-button-response,91,396224,0.0-88.0,1,0.1538461538461538,Certain,"[[0.8,0.2,0],[0,0.8,0.2],[0.2,0,0.8]]",0,6.5,1206.0,"
        <div class=""feedback-container"" style=""text-align: center;"">
          <h3>Fishing Results</h3>
          <div style=""text-align: center;"">
            <p>Allie caught: <strong>Locona</strong></p><br>
            <img src='img/fish_blue.png' style='width: 150px; height: auto; margin: 10px;'></img>
          </div></div>",0,feedback_16,,,,,,,,,,,,,,,,,PVNK7
,,,,,fishBanditPlugin,92,401130,0.0-89.0,1,0.1538461538461538,Certain,"[[0.8,0.2,0],[0,0.8,0.2],[0.2,0,0.8]]",0,6.5,4904.900000002235,,0,fish_bandit_trial_17,play,experimental,low,gray,10.0,"[2,0]",0.0,Wood Boat,10.0,40.0,0.0,Locona,0.0,Locona,17.0,,PVNK7
,,,,,html-button-response,93,402348,0.0-90.0,1,0.1538461538461538,Certain,"[[0.8,0.2,0],[0,0.8,0.2],[0.2,0,0.8]]",0,6.5,1218.0,"
        <div class=""feedback-container"" style=""text-align: center;"">
          <h3>Fishing Results</h3>
          <div style=""text-align: center;"">
            <p>You caught: <strong>Locona</strong></p><br>
            <img src='img/fish_blue.png' style='width: 150px; height: auto; margin: 10px;'></img>
          </div></div>",0,feedback_17,,,,,,,,,,,,,,,,,PVNK7
,,,,,html-button-response,94,411646,0.0-91.0,1,0.1538461538461538,Certain,"[[0.8,0.2,0],[0,0.8,0.2],[0.2,0,0.8]]",0,6.5,9298.0,"You have completed 15% of the fishing task.<br><br>
          In this section, you earned <strong>40 coins</strong>.<br><br> 
          Overall, you have earned <strong>40 coins</strong>, which adds <strong>$0.06</strong> to your bonus payment. <br><br> 
          Remember that the valuable fish will keep changing from time to time, so pay attention to Allie's choices! <br><br> 
          When you're ready, press the button to continue.",0,,,,,,,,,,,,,,,,,,PVNK7
,,,,,html-button-response,95,416585,0.0-92.0,1,0.1538461538461538,Certain,"[[0.8,0.2,0],[0,0.8,0.2],[0.2,0,0.8]]",0,6.5,4938.0,"
    <div style=""max-width: 900px; margin: 0 auto;"">
      <h3>💰🎉 Festival Days! 🎉💰</h3>
      <img src='img/misthaven_festival.png' width='650' height='auto'></img>
      <p>Festival days are here! During the following days, the valuable fish is worth 100 coins!</p>
    </div>",0,festival_start,,,,,,,,,,,,,,,,,PVNK7
,,,,,fishBanditPlugin,96,421007,0.0-93.0,1,0.1538461538461538,Certain,"[[0.8,0.2,0],[0,0.8,0.2],[0.2,0,0.8]]",0,6.5,,,1,fish_bandit_trial_18,observe,experimental,high,deeppink,100.0,"[0,1]",1.0,White Boat,,,2.0,Whuffey,2.0,Whuffey,18.0,,PVNK7
,,,,,html-button-response,97,421946,0.0-94.0,1,0.1538461538461538,Certain,"[[0.8,0.2,0],[0,0.8,0.2],[0.2,0,0.8]]",0,6.5,938.0,"
        <div class=""feedback-container"" style=""text-align: center;"">
          <h3>Fishing Results</h3>
          <div style=""text-align: center;"">
            <p>Allie caught: <strong>Whuffey</strong></p><br>
            <img src='img/fish_red.png' style='width: 150px; height: auto; margin: 10px;'></img>
          </div></div>",0,feedback_18,,,,,,,,,,,,,,,,,PVNK7
,,,,,fishBanditPlugin,98,426557,0.0-95.0,1,0.1538461538461538,Certain,"[[0.8,0.2,0],[0,0.8,0.2],[0.2,0,0.8]]",0,6.5,,,2,fish_bandit_trial_19,observe,experimental,high,deeppink,100.0,"[0,2]",2.0,Metal Boat,,,2.0,Whuffey,2.0,Whuffey,19.0,,PVNK7
,,,,,html-button-response,99,427408,0.0-96.0,1,0.1538461538461538,Certain,"[[0.8,0.2,0],[0,0.8,0.2],[0.2,0,0.8]]",0,6.5,851.0,"
        <div class=""feedback-container"" style=""text-align: center;"">
          <h3>Fishing Results</h3>
          <div style=""text-align: center;"">
            <p>Allie caught: <strong>Whuffey</strong></p><br>
            <img src='img/fish_red.png' style='width: 150px; height: auto; margin: 10px;'></img>
          </div></div>",0,feedback_19,,,,,,,,,,,,,,,,,PVNK7
,,,,,fishBanditPlugin,100,432539,0.0-97.0,1,0.1538461538461538,Certain,"[[0.8,0.2,0],[0,0.8,0.2],[0.2,0,0.8]]",0,6.5,,,1,fish_bandit_trial_20,observe,experimental,high,deeppink,100.0,"[0,1]",1.0,White Boat,,,1.0,Addish,2.0,Whuffey,20.0,,PVNK7
,,,,,html-button-response,101,433462,0.0-98.0,1,0.1538461538461538,Certain,"[[0.8,0.2,0],[0,0.8,0.2],[0.2,0,0.8]]",0,6.5,922.0,"
        <div class=""feedback-container"" style=""text-align: center;"">
          <h3>Fishing Results</h3>
          <div style=""text-align: center;"">
            <p>Allie caught: <strong>Addish</strong></p><br>
            <img src='img/fish_green.png' style='width: 150px; height: auto; margin: 10px;'></img>
          </div></div>",0,feedback_20,,,,,,,,,,,,,,,,,PVNK7
,,,,,fishBanditPlugin,102,434846,0.0-99.0,1,0.1538461538461538,Certain,"[[0.8,0.2,0],[0,0.8,0.2],[0.2,0,0.8]]",0,6.5,1383.300000000745,,2,fish_bandit_trial_21,play,experimental,high,deeppink,100.0,"[1,2]",2.0,Metal Boat,100.0,140.0,2.0,Whuffey,2.0,Whuffey,21.0,,PVNK7
,,,,,html-button-response,103,436080,0.0-100.0,1,0.1538461538461538,Certain,"[[0.8,0.2,0],[0,0.8,0.2],[0.2,0,0.8]]",0,6.5,1233.0,"
        <div class=""feedback-container"" style=""text-align: center;"">
          <h3>Fishing Results</h3>
          <div style=""text-align: center;"">
            <p>You caught: <strong>Whuffey</strong></p><br>
            <img src='img/fish_red.png' style='width: 150px; height: auto; margin: 10px;'></img>
          </div></div>",0,feedback_21,,,,,,,,,,,,,,,,,PVNK7
,,,,,fishBanditPlugin,104,438390,0.0-101.0,1,0.1538461538461538,Certain,"[[0.8,0.2,0],[0,0.8,0.2],[0.2,0,0.8]]",0,6.5,2309.20000000298,,1,fish_bandit_trial_22,play,experimental,high,deeppink,100.0,"[0,1]",1.0,White Boat,0.0,140.0,1.0,Addish,2.0,Whuffey,22.0,,PVNK7
,,,,,html-button-response,105,439374,0.0-102.0,1,0.1538461538461538,Certain,"[[0.8,0.2,0],[0,0.8,0.2],[0.2,0,0.8]]",0,6.5,984.0,"
        <div class=""feedback-container"" style=""text-align: center;"">
          <h3>Fishing Results</h3>
          <div style=""text-align: center;"">
            <p>You caught: <strong>Addish</strong></p><br>
            <img src='img/fish_green.png' style='width: 150px; height: auto; margin: 10px;'></img>
          </div></div>",0,feedback_22,,,,,,,,,,,,,,,,,PVNK7
,,,,,fishBanditPlugin,106,444267,0.0-103.0,1,0.1538461538461538,Certain,"[[0.8,0.2,0],[0,0.8,0.2],[0.2,0,0.8]]",0,6.5,,,2,fish_bandit_trial_23,observe,experimental,high,deeppink,100.0,"[0,2]",2.0,Metal Boat,,,2.0,Whuffey,2.0,Whuffey,23.0,,PVNK7
,,,,,html-button-response,107,445198,0.0-104.0,1,0.1538461538461538,Certain,"[[0.8,0.2,0],[0,0.8,0.2],[0.2,0,0.8]]",0,6.5,930.0,"
        <div class=""feedback-container"" style=""text-align: center;"">
          <h3>Fishing Results</h3>
          <div style=""text-align: center;"">
            <p>Allie caught: <strong>Whuffey</strong></p><br>
            <img src='img/fish_red.png' style='width: 150px; height: auto; margin: 10px;'></img>
          </div></div>",0,feedback_23,,,,,,,,,,,,,,,,,PVNK7
,,,,,fishBanditPlugin,108,450793,0.0-105.0,1,0.1538461538461538,Certain,"[[0.8,0.2,0],[0,0.8,0.2],[0.2,0,0.8]]",0,6.5,,,1,fish_bandit_trial_24,observe,experimental,high,deeppink,100.0,"[0,1]",1.0,White Boat,,,1.0,Addish,2.0,Whuffey,24.0,,PVNK7
,,,,,html-button-response,109,451746,0.0-106.0,1,0.1538461538461538,Certain,"[[0.8,0.2,0],[0,0.8,0.2],[0.2,0,0.8]]",0,6.5,953.0,"
        <div class=""feedback-container"" style=""text-align: center;"">
          <h3>Fishing Results</h3>
          <div style=""text-align: center;"">
            <p>Allie caught: <strong>Addish</strong></p><br>
            <img src='img/fish_green.png' style='width: 150px; height: auto; margin: 10px;'></img>
          </div></div>",0,feedback_24,,,,,,,,,,,,,,,,,PVNK7
,,,,,fishBanditPlugin,110,452824,0.0-107.0,1,0.1538461538461538,Certain,"[[0.8,0.2,0],[0,0.8,0.2],[0.2,0,0.8]]",0,6.5,1077.199999999255,,2,fish_bandit_trial_25,play,experimental,high,deeppink,100.0,"[0,2]",2.0,Metal Boat,0.0,140.0,2.0,Whuffey,0.0,Locona,25.0,,PVNK7
,,,,,html-button-response,111,453956,0.0-108.0,1,0.1538461538461538,Certain,"[[0.8,0.2,0],[0,0.8,0.2],[0.2,0,0.8]]",0,6.5,1132.0,"
        <div class=""feedback-container"" style=""text-align: center;"">
          <h3>Fishing Results</h3>
          <div style=""text-align: center;"">
            <p>You caught: <strong>Whuffey</strong></p><br>
            <img src='img/fish_red.png' style='width: 150px; height: auto; margin: 10px;'></img>
          </div></div>",0,feedback_25,,,,,,,,,,,,,,,,,PVNK7
,,,,,fishBanditPlugin,112,458210,0.0-109.0,1,0.1538461538461538,Certain,"[[0.8,0.2,0],[0,0.8,0.2],[0.2,0,0.8]]",0,6.5,,,0,fish_bandit_trial_26,observe,experimental,high,deeppink,100.0,"[0,1]",0.0,Wood Boat,,,1.0,Addish,0.0,Locona,26.0,,PVNK7
,,,,,html-button-response,113,459153,0.0-110.0,1,0.1538461538461538,Certain,"[[0.8,0.2,0],[0,0.8,0.2],[0.2,0,0.8]]",0,6.5,942.0,"
        <div class=""feedback-container"" style=""text-align: center;"">
          <h3>Fishing Results</h3>
          <div style=""text-align: center;"">
            <p>Allie caught: <strong>Addish</strong></p><br>
            <img src='img/fish_green.png' style='width: 150px; height: auto; margin: 10px;'></img>
          </div></div>",0,feedback_26,,,,,,,,,,,,,,,,,PVNK7
,,,,,fishBanditPlugin,114,460364,0.0-111.0,1,0.1538461538461538,Certain,"[[0.8,0.2,0],[0,0.8,0.2],[0.2,0,0.8]]",0,6.5,1210.800000000745,,2,fish_bandit_trial_27,play,experimental,high,deeppink,100.0,"[1,2]",2.0,Metal Boat,0.0,140.0,2.0,Whuffey,0.0,Locona,27.0,,PVNK7
,,,,,html-button-response,115,461419,0.0-112.0,1,0.1538461538461538,Certain,"[[0.8,0.2,0],[0,0.8,0.2],[0.2,0,0.8]]",0,6.5,1054.0,"
        <div class=""feedback-container"" style=""text-align: center;"">
          <h3>Fishing Results</h3>
          <div style=""text-align: center;"">
            <p>You caught: <strong>Whuffey</strong></p><br>
            <img src='img/fish_red.png' style='width: 150px; height: auto; margin: 10px;'></img>
          </div></div>",0,feedback_27,,,,,,,,,,,,,,,,,PVNK7
,,,,,fishBanditPlugin,116,465842,0.0-113.0,1,0.1538461538461538,Certain,"[[0.8,0.2,0],[0,0.8,0.2],[0.2,0,0.8]]",0,6.5,,,0,fish_bandit_trial_28,observe,experimental,high,deeppink,100.0,"[2,0]",0.0,Wood Boat,,,0.0,Locona,0.0,Locona,28.0,,PVNK7
,,,,,html-button-response,117,466717,0.0-114.0,1,0.1538461538461538,Certain,"[[0.8,0.2,0],[0,0.8,0.2],[0.2,0,0.8]]",0,6.5,874.0,"
        <div class=""feedback-container"" style=""text-align: center;"">
          <h3>Fishing Results</h3>
          <div style=""text-align: center;"">
            <p>Allie caught: <strong>Locona</strong></p><br>
            <img src='img/fish_blue.png' style='width: 150px; height: auto; margin: 10px;'></img>
          </div></div>",0,feedback_28,,,,,,,,,,,,,,,,,PVNK7
,,,,,fishBanditPlugin,118,472236,0.0-115.0,1,0.1538461538461538,Certain,"[[0.8,0.2,0],[0,0.8,0.2],[0.2,0,0.8]]",0,6.5,,,2,fish_bandit_trial_29,observe,experimental,high,deeppink,100.0,"[2,1]",2.0,Metal Boat,,,2.0,Whuffey,0.0,Locona,29.0,,PVNK7
,,,,,html-button-response,119,473052,0.0-116.0,1,0.1538461538461538,Certain,"[[0.8,0.2,0],[0,0.8,0.2],[0.2,0,0.8]]",0,6.5,816.0,"
        <div class=""feedback-container"" style=""text-align: center;"">
          <h3>Fishing Results</h3>
          <div style=""text-align: center;"">
            <p>Allie caught: <strong>Whuffey</strong></p><br>
            <img src='img/fish_red.png' style='width: 150px; height: auto; margin: 10px;'></img>
          </div></div>",0,feedback_29,,,,,,,,,,,,,,,,,PVNK7
,,,,,fishBanditPlugin,120,474146,0.0-117.0,1,0.1538461538461538,Certain,"[[0.8,0.2,0],[0,0.8,0.2],[0.2,0,0.8]]",0,6.5,1092.89999999851,,0,fish_bandit_trial_30,play,experimental,high,deeppink,100.0,"[1,0]",0.0,Wood Boat,100.0,240.0,0.0,Locona,0.0,Locona,30.0,,PVNK7
,,,,,html-button-response,121,475184,0.0-118.0,1,0.1538461538461538,Certain,"[[0.8,0.2,0],[0,0.8,0.2],[0.2,0,0.8]]",0,6.5,1037.0,"
        <div class=""feedback-container"" style=""text-align: center;"">
          <h3>Fishing Results</h3>
          <div style=""text-align: center;"">
            <p>You caught: <strong>Locona</strong></p><br>
            <img src='img/fish_blue.png' style='width: 150px; height: auto; margin: 10px;'></img>
          </div></div>",0,feedback_30,,,,,,,,,,,,,,,,,PVNK7
,,,,,fishBanditPlugin,122,479186,0.0-119.0,1,0.1538461538461538,Certain,"[[0.8,0.2,0],[0,0.8,0.2],[0.2,0,0.8]]",0,6.5,,,2,fish_bandit_trial_31,observe,experimental,high,deeppink,100.0,"[0,2]",2.0,Metal Boat,,,0.0,Locona,2.0,Whuffey,31.0,,PVNK7
,,,,,html-button-response,123,480200,0.0-120.0,1,0.1538461538461538,Certain,"[[0.8,0.2,0],[0,0.8,0.2],[0.2,0,0.8]]",0,6.5,1013.0,"
        <div class=""feedback-container"" style=""text-align: center;"">
          <h3>Fishing Results</h3>
          <div style=""text-align: center;"">
            <p>Allie caught: <strong>Locona</strong></p><br>
            <img src='img/fish_blue.png' style='width: 150px; height: auto; margin: 10px;'></img>
          </div></div>",0,feedback_31,,,,,,,,,,,,,,,,,PVNK7
,,,,,fishBanditPlugin,124,486395,0.0-121.0,1,0.1538461538461538,Certain,"[[0.8,0.2,0],[0,0.8,0.2],[0.2,0,0.8]]",0,6.5,,,2,fish_bandit_trial_32,observe,experimental,high,deeppink,100.0,"[2,1]",2.0,Metal Boat,,,0.0,Locona,2.0,Whuffey,32.0,,PVNK7
,,,,,html-button-response,125,487338,0.0-122.0,1,0.1538461538461538,Certain,"[[0.8,0.2,0],[0,0.8,0.2],[0.2,0,0.8]]",0,6.5,942.0,"
        <div class=""feedback-container"" style=""text-align: center;"">
          <h3>Fishing Results</h3>
          <div style=""text-align: center;"">
            <p>Allie caught: <strong>Locona</strong></p><br>
            <img src='img/fish_blue.png' style='width: 150px; height: auto; margin: 10px;'></img>
          </div></div>",0,feedback_32,,,,,,,,,,,,,,,,,PVNK7
,,,,,fishBanditPlugin,126,489532,0.0-123.0,1,0.1538461538461538,Certain,"[[0.8,0.2,0],[0,0.8,0.2],[0.2,0,0.8]]",0,6.5,2192.800000000745,,2,fish_bandit_trial_33,play,experimental,high,deeppink,100.0,"[2,0]",2.0,Metal Boat,100.0,340.0,2.0,Whuffey,2.0,Whuffey,33.0,,PVNK7
,,,,,html-button-response,127,491144,0.0-124.0,1,0.1538461538461538,Certain,"[[0.8,0.2,0],[0,0.8,0.2],[0.2,0,0.8]]",0,6.5,1612.0,"
        <div class=""feedback-container"" style=""text-align: center;"">
          <h3>Fishing Results</h3>
          <div style=""text-align: center;"">
            <p>You caught: <strong>Whuffey</strong></p><br>
            <img src='img/fish_red.png' style='width: 150px; height: auto; margin: 10px;'></img>
          </div></div>",0,feedback_33,,,,,,,,,,,,,,,,,PVNK7
,,,,,fishBanditPlugin,128,492896,0.0-125.0,1,0.1538461538461538,Certain,"[[0.8,0.2,0],[0,0.8,0.2],[0.2,0,0.8]]",0,6.5,1751.800000000745,,2,fish_bandit_trial_34,play,experimental,high,deeppink,100.0,"[2,1]",2.0,Metal Boat,100.0,440.0,2.0,Whuffey,2.0,Whuffey,34.0,,PVNK7
,,,,,html-button-response,129,494092,0.0-126.0,1,0.1538461538461538,Certain,"[[0.8,0.2,0],[0,0.8,0.2],[0.2,0,0.8]]",0,6.5,1196.0,"
        <div class=""feedback-container"" style=""text-align: center;"">
          <h3>Fishing Results</h3>
          <div style=""text-align: center;"">
            <p>You caught: <strong>Whuffey</strong></p><br>
            <img src='img/fish_red.png' style='width: 150px; height: auto; margin: 10px;'></img>
          </div></div>",0,feedback_34,,,,,,,,,,,,,,,,,PVNK7
,,,,,html-button-response,130,500037,0.0-127.0,1,0.1538461538461538,Certain,"[[0.8,0.2,0],[0,0.8,0.2],[0.2,0,0.8]]",0,6.5,5944.0,"You have completed 27% of the fishing task.<br><br>
          In this section, you earned <strong>400 coins</strong>.<br><br> 
          Overall, you have earned <strong>440 coins</strong>, which adds <strong>$0.68</strong> to your bonus payment. <br><br> 
          Remember that the valuable fish will keep changing from time to time, so pay attention to Allie's choices! <br><br> 
          When you're ready, press the button to continue.",0,,,,,,,,,,,,,,,,,,PVNK7
,,,,,html-button-response,131,503158,0.0-128.0,1,0.1538461538461538,Certain,"[[0.8,0.2,0],[0,0.8,0.2],[0.2,0,0.8]]",0,6.5,3121.0,"
    <div style=""max-width: 900px; margin: 0 auto;"">
      <h3>Routine Days</h3>
      <img src='img/misthaven_routine.png' width='650' height='auto'></img>
      <p>The following days are routine days. The valuable fish is worth 10 coins.</p>
    </div>",0,routine_start,,,,,,,,,,,,,,,,,PVNK7
,,,,,fishBanditPlugin,132,507498,0.0-129.0,1,0.1538461538461538,Certain,"[[0.8,0.2,0],[0,0.8,0.2],[0.2,0,0.8]]",0,6.5,,,0,fish_bandit_trial_35,observe,experimental,low,gray,10.0,"[0,2]",0.0,Wood Boat,,,0.0,Locona,1.0,Addish,35.0,,PVNK7
,,,,,html-button-response,133,509188,0.0-130.0,1,0.1538461538461538,Certain,"[[0.8,0.2,0],[0,0.8,0.2],[0.2,0,0.8]]",0,6.5,1689.0,"
        <div class=""feedback-container"" style=""text-align: center;"">
          <h3>Fishing Results</h3>
          <div style=""text-align: center;"">
            <p>Allie caught: <strong>Locona</strong></p><br>
            <img src='img/fish_blue.png' style='width: 150px; height: auto; margin: 10px;'></img>
          </div></div>",0,feedback_35,,,,,,,,,,,,,,,,,PVNK7
,,,,,fishBanditPlugin,134,521191,0.0-131.0,1,0.1538461538461538,Certain,"[[0.8,0.2,0],[0,0.8,0.2],[0.2,0,0.8]]",0,6.5,,,1,fish_bandit_trial_36,observe,experimental,low,gray,10.0,"[1,2]",1.0,White Boat,,,2.0,Whuffey,1.0,Addish,36.0,,PVNK7
,,,,,html-button-response,135,522480,0.0-132.0,1,0.1538461538461538,Certain,"[[0.8,0.2,0],[0,0.8,0.2],[0.2,0,0.8]]",0,6.5,1288.0,"
        <div class=""feedback-container"" style=""text-align: center;"">
          <h3>Fishing Results</h3>
          <div style=""text-align: center;"">
            <p>Allie caught: <strong>Whuffey</strong></p><br>
            <img src='img/fish_red.png' style='width: 150px; height: auto; margin: 10px;'></img>
          </div></div>",0,feedback_36,,,,,,,,,,,,,,,,,PVNK7
,,,,,fishBanditPlugin,136,528191,0.0-133.0,1,0.1538461538461538,Certain,"[[0.8,0.2,0],[0,0.8,0.2],[0.2,0,0.8]]",0,6.5,,,0,fish_bandit_trial_37,observe,experimental,low,gray,10.0,"[0,2]",0.0,Wood Boat,,,0.0,Locona,1.0,Addish,37.0,,PVNK7
,,,,,html-button-response,137,531852,0.0-134.0,1,0.1538461538461538,Certain,"[[0.8,0.2,0],[0,0.8,0.2],[0.2,0,0.8]]",0,6.5,3660.0,"
        <div class=""feedback-container"" style=""text-align: center;"">
          <h3>Fishing Results</h3>
          <div style=""text-align: center;"">
            <p>Allie caught: <strong>Locona</strong></p><br>
            <img src='img/fish_blue.png' style='width: 150px; height: auto; margin: 10px;'></img>
          </div></div>",0,feedback_37,,,,,,,,,,,,,,,,,PVNK7
,,,,,fishBanditPlugin,138,533754,0.0-135.0,1,0.1538461538461538,Certain,"[[0.8,0.2,0],[0,0.8,0.2],[0.2,0,0.8]]",0,6.5,1900.800000000745,,0,fish_bandit_trial_38,play,experimental,low,gray,10.0,"[0,1]",0.0,Wood Boat,0.0,440.0,0.0,Locona,1.0,Addish,38.0,,PVNK7
,,,,,html-button-response,139,534846,0.0-136.0,1,0.1538461538461538,Certain,"[[0.8,0.2,0],[0,0.8,0.2],[0.2,0,0.8]]",0,6.5,1091.0,"
        <div class=""feedback-container"" style=""text-align: center;"">
          <h3>Fishing Results</h3>
          <div style=""text-align: center;"">
            <p>You caught: <strong>Locona</strong></p><br>
            <img src='img/fish_blue.png' style='width: 150px; height: auto; margin: 10px;'></img>
          </div></div>",0,feedback_38,,,,,,,,,,,,,,,,,PVNK7
,,,,,fishBanditPlugin,140,539933,0.0-137.0,1,0.1538461538461538,Certain,"[[0.8,0.2,0],[0,0.8,0.2],[0.2,0,0.8]]",0,6.5,,,0,fish_bandit_trial_39,observe,experimental,low,gray,10.0,"[2,0]",0.0,Wood Boat,,,0.0,Locona,1.0,Addish,39.0,,PVNK7
,,,,,html-button-response,141,540822,0.0-138.0,1,0.1538461538461538,Certain,"[[0.8,0.2,0],[0,0.8,0.2],[0.2,0,0.8]]",0,6.5,889.0,"
        <div class=""feedback-container"" style=""text-align: center;"">
          <h3>Fishing Results</h3>
          <div style=""text-align: center;"">
            <p>Allie caught: <strong>Locona</strong></p><br>
            <img src='img/fish_blue.png' style='width: 150px; height: auto; margin: 10px;'></img>
          </div></div>",0,feedback_39,,,,,,,,,,,,,,,,,PVNK7
,,,,,fishBanditPlugin,142,542371,0.0-139.0,1,0.1538461538461538,Certain,"[[0.8,0.2,0],[0,0.8,0.2],[0.2,0,0.8]]",0,6.5,1548.699999999255,,0,fish_bandit_trial_40,play,experimental,low,gray,10.0,"[0,1]",0.0,Wood Boat,10.0,450.0,1.0,Addish,1.0,Addish,40.0,,PVNK7
,,,,,html-button-response,143,543424,0.0-140.0,1,0.1538461538461538,Certain,"[[0.8,0.2,0],[0,0.8,0.2],[0.2,0,0.8]]",0,6.5,1052.0,"
        <div class=""feedback-container"" style=""text-align: center;"">
          <h3>Fishing Results</h3>
          <div style=""text-align: center;"">
            <p>You caught: <strong>Addish</strong></p><br>
            <img src='img/fish_green.png' style='width: 150px; height: auto; margin: 10px;'></img>
          </div></div>",0,feedback_40,,,,,,,,,,,,,,,,,PVNK7
,,,,,fishBanditPlugin,144,552515,0.0-141.0,1,0.1538461538461538,Certain,"[[0.8,0.2,0],[0,0.8,0.2],[0.2,0,0.8]]",0,6.5,,,1,fish_bandit_trial_41,observe,experimental,low,gray,10.0,"[1,2]",1.0,White Boat,,,1.0,Addish,1.0,Addish,41.0,,PVNK7
,,,,,html-button-response,145,553590,0.0-142.0,1,0.1538461538461538,Certain,"[[0.8,0.2,0],[0,0.8,0.2],[0.2,0,0.8]]",0,6.5,1073.0,"
        <div class=""feedback-container"" style=""text-align: center;"">
          <h3>Fishing Results</h3>
          <div style=""text-align: center;"">
            <p>Allie caught: <strong>Addish</strong></p><br>
            <img src='img/fish_green.png' style='width: 150px; height: auto; margin: 10px;'></img>
          </div></div>",0,feedback_41,,,,,,,,,,,,,,,,,PVNK7
,,,,,fishBanditPlugin,146,558616,0.0-143.0,1,0.1538461538461538,Certain,"[[0.8,0.2,0],[0,0.8,0.2],[0.2,0,0.8]]",0,6.5,,,0,fish_bandit_trial_42,observe,experimental,low,gray,10.0,"[1,0]",0.0,Wood Boat,,,0.0,Locona,0.0,Locona,42.0,,PVNK7
,,,,,html-button-response,147,560090,0.0-144.0,1,0.1538461538461538,Certain,"[[0.8,0.2,0],[0,0.8,0.2],[0.2,0,0.8]]",0,6.5,1473.0,"
        <div class=""feedback-container"" style=""text-align: center;"">
          <h3>Fishing Results</h3>
          <div style=""text-align: center;"">
            <p>Allie caught: <strong>Locona</strong></p><br>
            <img src='img/fish_blue.png' style='width: 150px; height: auto; margin: 10px;'></img>
          </div></div>",0,feedback_42,,,,,,,,,,,,,,,,,PVNK7
,,,,,fishBanditPlugin,148,561421,0.0-145.0,1,0.1538461538461538,Certain,"[[0.8,0.2,0],[0,0.8,0.2],[0.2,0,0.8]]",0,6.5,1330.199999999255,,0,fish_bandit_trial_43,play,experimental,low,gray,10.0,"[0,2]",0.0,Wood Boat,10.0,460.0,0.0,Locona,0.0,Locona,43.0,,PVNK7
,,,,,html-button-response,149,562560,0.0-146.0,1,0.1538461538461538,Certain,"[[0.8,0.2,0],[0,0.8,0.2],[0.2,0,0.8]]",0,6.5,1138.0,"
        <div class=""feedback-container"" style=""text-align: center;"">
          <h3>Fishing Results</h3>
          <div style=""text-align: center;"">
            <p>You caught: <strong>Locona</strong></p><br>
            <img src='img/fish_blue.png' style='width: 150px; height: auto; margin: 10px;'></img>
          </div></div>",0,feedback_43,,,,,,,,,,,,,,,,,PVNK7
,,,,,fishBanditPlugin,150,566332,0.0-147.0,1,0.1538461538461538,Certain,"[[0.8,0.2,0],[0,0.8,0.2],[0.2,0,0.8]]",0,6.5,,,2,fish_bandit_trial_44,observe,experimental,low,gray,10.0,"[2,1]",2.0,Metal Boat,,,2.0,Whuffey,0.0,Locona,44.0,,PVNK7
,,,,,html-button-response,151,567236,0.0-148.0,1,0.1538461538461538,Certain,"[[0.8,0.2,0],[0,0.8,0.2],[0.2,0,0.8]]",0,6.5,904.0,"
        <div class=""feedback-container"" style=""text-align: center;"">
          <h3>Fishing Results</h3>
          <div style=""text-align: center;"">
            <p>Allie caught: <strong>Whuffey</strong></p><br>
            <img src='img/fish_red.png' style='width: 150px; height: auto; margin: 10px;'></img>
          </div></div>",0,feedback_44,,,,,,,,,,,,,,,,,PVNK7
,,,,,fishBanditPlugin,152,568531,0.0-149.0,1,0.1538461538461538,Certain,"[[0.8,0.2,0],[0,0.8,0.2],[0.2,0,0.8]]",0,6.5,1294.699999999255,,0,fish_bandit_trial_45,play,experimental,low,gray,10.0,"[2,0]",0.0,Wood Boat,10.0,470.0,0.0,Locona,0.0,Locona,45.0,,PVNK7
,,,,,html-button-response,153,569484,0.0-150.0,1,0.1538461538461538,Certain,"[[0.8,0.2,0],[0,0.8,0.2],[0.2,0,0.8]]",0,6.5,952.0,"
        <div class=""feedback-container"" style=""text-align: center;"">
          <h3>Fishing Results</h3>
          <div style=""text-align: center;"">
            <p>You caught: <strong>Locona</strong></p><br>
            <img src='img/fish_blue.png' style='width: 150px; height: auto; margin: 10px;'></img>
          </div></div>",0,feedback_45,,,,,,,,,,,,,,,,,PVNK7
,,,,,fishBanditPlugin,154,573832,0.0-151.0,1,0.1538461538461538,Certain,"[[0.8,0.2,0],[0,0.8,0.2],[0.2,0,0.8]]",0,6.5,,,0,fish_bandit_trial_46,observe,experimental,low,gray,10.0,"[0,1]",0.0,Wood Boat,,,1.0,Addish,0.0,Locona,46.0,,PVNK7
,,,,,html-button-response,155,574750,0.0-152.0,1,0.1538461538461538,Certain,"[[0.8,0.2,0],[0,0.8,0.2],[0.2,0,0.8]]",0,6.5,917.0,"
        <div class=""feedback-container"" style=""text-align: center;"">
          <h3>Fishing Results</h3>
          <div style=""text-align: center;"">
            <p>Allie caught: <strong>Addish</strong></p><br>
            <img src='img/fish_green.png' style='width: 150px; height: auto; margin: 10px;'></img>
          </div></div>",0,feedback_46,,,,,,,,,,,,,,,,,PVNK7
,,,,,fishBanditPlugin,156,575962,0.0-153.0,1,0.1538461538461538,Certain,"[[0.8,0.2,0],[0,0.8,0.2],[0.2,0,0.8]]",0,6.5,1211.5,,0,fish_bandit_trial_47,play,experimental,low,gray,10.0,"[0,2]",0.0,Wood Boat,10.0,480.0,0.0,Locona,0.0,Locona,47.0,,PVNK7
,,,,,html-button-response,157,577030,0.0-154.0,1,0.1538461538461538,Certain,"[[0.8,0.2,0],[0,0.8,0.2],[0.2,0,0.8]]",0,6.5,1068.0,"
        <div class=""feedback-container"" style=""text-align: center;"">
          <h3>Fishing Results</h3>
          <div style=""text-align: center;"">
            <p>You caught: <strong>Locona</strong></p><br>
            <img src='img/fish_blue.png' style='width: 150px; height: auto; margin: 10px;'></img>
          </div></div>",0,feedback_47,,,,,,,,,,,,,,,,,PVNK7
,,,,,fishBanditPlugin,158,581617,0.0-155.0,1,0.1538461538461538,Certain,"[[0.8,0.2,0],[0,0.8,0.2],[0.2,0,0.8]]",0,6.5,,,2,fish_bandit_trial_48,observe,experimental,low,gray,10.0,"[2,1]",2.0,Metal Boat,,,2.0,Whuffey,0.0,Locona,48.0,,PVNK7
,,,,,html-button-response,159,582566,0.0-156.0,1,0.1538461538461538,Certain,"[[0.8,0.2,0],[0,0.8,0.2],[0.2,0,0.8]]",0,6.5,947.0,"
        <div class=""feedback-container"" style=""text-align: center;"">
          <h3>Fishing Results</h3>
          <div style=""text-align: center;"">
            <p>Allie caught: <strong>Whuffey</strong></p><br>
            <img src='img/fish_red.png' style='width: 150px; height: auto; margin: 10px;'></img>
          </div></div>",0,feedback_48,,,,,,,,,,,,,,,,,PVNK7
,,,,,fishBanditPlugin,160,587385,0.0-157.0,1,0.1538461538461538,Certain,"[[0.8,0.2,0],[0,0.8,0.2],[0.2,0,0.8]]",0,6.5,,,2,fish_bandit_trial_49,observe,experimental,low,gray,10.0,"[2,0]",2.0,Metal Boat,,,2.0,Whuffey,2.0,Whuffey,49.0,,PVNK7
,,,,,html-button-response,161,588540,0.0-158.0,1,0.1538461538461538,Certain,"[[0.8,0.2,0],[0,0.8,0.2],[0.2,0,0.8]]",0,6.5,1154.0,"
        <div class=""feedback-container"" style=""text-align: center;"">
          <h3>Fishing Results</h3>
          <div style=""text-align: center;"">
            <p>Allie caught: <strong>Whuffey</strong></p><br>
            <img src='img/fish_red.png' style='width: 150px; height: auto; margin: 10px;'></img>
          </div></div>",0,feedback_49,,,,,,,,,,,,,,,,,PVNK7
,,,,,fishBanditPlugin,162,589931,0.0-159.0,1,0.1538461538461538,Certain,"[[0.8,0.2,0],[0,0.8,0.2],[0.2,0,0.8]]",0,6.5,1390.5999999977648,,2,fish_bandit_trial_50,play,experimental,low,gray,10.0,"[2,1]",2.0,Metal Boat,10.0,490.0,2.0,Whuffey,2.0,Whuffey,50.0,,PVNK7
,,,,,html-button-response,163,590868,0.0-160.0,1,0.1538461538461538,Certain,"[[0.8,0.2,0],[0,0.8,0.2],[0.2,0,0.8]]",0,6.5,936.0,"
        <div class=""feedback-container"" style=""text-align: center;"">
          <h3>Fishing Results</h3>
          <div style=""text-align: center;"">
            <p>You caught: <strong>Whuffey</strong></p><br>
            <img src='img/fish_red.png' style='width: 150px; height: auto; margin: 10px;'></img>
          </div></div>",0,feedback_50,,,,,,,,,,,,,,,,,PVNK7
,,,,,fishBanditPlugin,164,592684,0.0-161.0,1,0.1538461538461538,Certain,"[[0.8,0.2,0],[0,0.8,0.2],[0.2,0,0.8]]",0,6.5,1816.0,,1,fish_bandit_trial_51,play,experimental,low,gray,10.0,"[1,0]",1.0,White Boat,10.0,500.0,2.0,Whuffey,2.0,Whuffey,51.0,,PVNK7
,,,,,html-button-response,165,593612,0.0-162.0,1,0.1538461538461538,Certain,"[[0.8,0.2,0],[0,0.8,0.2],[0.2,0,0.8]]",0,6.5,927.0,"
        <div class=""feedback-container"" style=""text-align: center;"">
          <h3>Fishing Results</h3>
          <div style=""text-align: center;"">
            <p>You caught: <strong>Whuffey</strong></p><br>
            <img src='img/fish_red.png' style='width: 150px; height: auto; margin: 10px;'></img>
          </div></div>",0,feedback_51,,,,,,,,,,,,,,,,,PVNK7
,,,,,html-button-response,166,600896,0.0-163.0,1,0.1538461538461538,Certain,"[[0.8,0.2,0],[0,0.8,0.2],[0.2,0,0.8]]",0,6.5,7284.0,"You have completed 40% of the fishing task.<br><br>
          In this section, you earned <strong>60 coins</strong>.<br><br> 
          Overall, you have earned <strong>500 coins</strong>, which adds <strong>$0.77</strong> to your bonus payment. <br><br> 
          Remember that the valuable fish will keep changing from time to time, so pay attention to Allie's choices! <br><br> 
          When you're ready, press the button to continue.",0,,,,,,,,,,,,,,,,,,PVNK7
,,,,,html-button-response,167,604340,0.0-164.0,1,0.1538461538461538,Certain,"[[0.8,0.2,0],[0,0.8,0.2],[0.2,0,0.8]]",0,6.5,3444.0,"
    <div style=""max-width: 900px; margin: 0 auto;"">
      <h3>💰🎉 Festival Days! 🎉💰</h3>
      <img src='img/misthaven_festival.png' width='650' height='auto'></img>
      <p>Festival days are here! During the following days, the valuable fish is worth 100 coins!</p>
    </div>",0,festival_start,,,,,,,,,,,,,,,,,PVNK7
,,,,,fishBanditPlugin,168,609010,0.0-165.0,1,0.1538461538461538,Certain,"[[0.8,0.2,0],[0,0.8,0.2],[0.2,0,0.8]]",0,6.5,,,0,fish_bandit_trial_52,observe,experimental,high,deeppink,100.0,"[0,2]",0.0,Wood Boat,,,0.0,Locona,1.0,Addish,52.0,,PVNK7
,,,,,html-button-response,169,609920,0.0-166.0,1,0.1538461538461538,Certain,"[[0.8,0.2,0],[0,0.8,0.2],[0.2,0,0.8]]",0,6.5,909.0,"
        <div class=""feedback-container"" style=""text-align: center;"">
          <h3>Fishing Results</h3>
          <div style=""text-align: center;"">
            <p>Allie caught: <strong>Locona</strong></p><br>
            <img src='img/fish_blue.png' style='width: 150px; height: auto; margin: 10px;'></img>
          </div></div>",0,feedback_52,,,,,,,,,,,,,,,,,PVNK7
,,,,,fishBanditPlugin,170,614037,0.0-167.0,1,0.1538461538461538,Certain,"[[0.8,0.2,0],[0,0.8,0.2],[0.2,0,0.8]]",0,6.5,,,1,fish_bandit_trial_53,observe,experimental,high,deeppink,100.0,"[1,2]",1.0,White Boat,,,1.0,Addish,1.0,Addish,53.0,,PVNK7
,,,,,html-button-response,171,614858,0.0-168.0,1,0.1538461538461538,Certain,"[[0.8,0.2,0],[0,0.8,0.2],[0.2,0,0.8]]",0,6.5,821.0,"
        <div class=""feedback-container"" style=""text-align: center;"">
          <h3>Fishing Results</h3>
          <div style=""text-align: center;"">
            <p>Allie caught: <strong>Addish</strong></p><br>
            <img src='img/fish_green.png' style='width: 150px; height: auto; margin: 10px;'></img>
          </div></div>",0,feedback_53,,,,,,,,,,,,,,,,,PVNK7
,,,,,fishBanditPlugin,172,619515,0.0-169.0,1,0.1538461538461538,Certain,"[[0.8,0.2,0],[0,0.8,0.2],[0.2,0,0.8]]",0,6.5,,,0,fish_bandit_trial_54,observe,experimental,high,deeppink,100.0,"[0,2]",0.0,Wood Boat,,,0.0,Locona,1.0,Addish,54.0,,PVNK7
,,,,,html-button-response,173,620384,0.0-170.0,1,0.1538461538461538,Certain,"[[0.8,0.2,0],[0,0.8,0.2],[0.2,0,0.8]]",0,6.5,868.0,"
        <div class=""feedback-container"" style=""text-align: center;"">
          <h3>Fishing Results</h3>
          <div style=""text-align: center;"">
            <p>Allie caught: <strong>Locona</strong></p><br>
            <img src='img/fish_blue.png' style='width: 150px; height: auto; margin: 10px;'></img>
          </div></div>",0,feedback_54,,,,,,,,,,,,,,,,,PVNK7
,,,,,fishBanditPlugin,174,621674,0.0-171.0,1,0.1538461538461538,Certain,"[[0.8,0.2,0],[0,0.8,0.2],[0.2,0,0.8]]",0,6.5,1289.60000000149,,1,fish_bandit_trial_55,play,experimental,high,deeppink,100.0,"[0,1]",1.0,White Boat,100.0,600.0,1.0,Addish,1.0,Addish,55.0,,PVNK7
,,,,,html-button-response,175,622570,0.0-172.0,1,0.1538461538461538,Certain,"[[0.8,0.2,0],[0,0.8,0.2],[0.2,0,0.8]]",0,6.5,896.0,"
        <div class=""feedback-container"" style=""text-align: center;"">
          <h3>Fishing Results</h3>
          <div style=""text-align: center;"">
            <p>You caught: <strong>Addish</strong></p><br>
            <img src='img/fish_green.png' style='width: 150px; height: auto; margin: 10px;'></img>
          </div></div>",0,feedback_55,,,,,,,,,,,,,,,,,PVNK7
,,,,,fishBanditPlugin,176,623930,0.0-173.0,1,0.1538461538461538,Certain,"[[0.8,0.2,0],[0,0.8,0.2],[0.2,0,0.8]]",0,6.5,1358.699999999255,,0,fish_bandit_trial_56,play,experimental,high,deeppink,100.0,"[0,2]",0.0,Wood Boat,100.0,700.0,1.0,Addish,1.0,Addish,56.0,,PVNK7
,,,,,html-button-response,177,624820,0.0-174.0,1,0.1538461538461538,Certain,"[[0.8,0.2,0],[0,0.8,0.2],[0.2,0,0.8]]",0,6.5,890.0,"
        <div class=""feedback-container"" style=""text-align: center;"">
          <h3>Fishing Results</h3>
          <div style=""text-align: center;"">
            <p>You caught: <strong>Addish</strong></p><br>
            <img src='img/fish_green.png' style='width: 150px; height: auto; margin: 10px;'></img>
          </div></div>",0,feedback_56,,,,,,,,,,,,,,,,,PVNK7
,,,,,fishBanditPlugin,178,629048,0.0-175.0,1,0.1538461538461538,Certain,"[[0.8,0.2,0],[0,0.8,0.2],[0.2,0,0.8]]",0,6.5,,,1,fish_bandit_trial_57,observe,experimental,high,deeppink,100.0,"[2,1]",1.0,White Boat,,,1.0,Addish,1.0,Addish,57.0,,PVNK7
,,,,,html-button-response,179,629976,0.0-176.0,1,0.1538461538461538,Certain,"[[0.8,0.2,0],[0,0.8,0.2],[0.2,0,0.8]]",0,6.5,927.0,"
        <div class=""feedback-container"" style=""text-align: center;"">
          <h3>Fishing Results</h3>
          <div style=""text-align: center;"">
            <p>Allie caught: <strong>Addish</strong></p><br>
            <img src='img/fish_green.png' style='width: 150px; height: auto; margin: 10px;'></img>
          </div></div>",0,feedback_57,,,,,,,,,,,,,,,,,PVNK7
,,,,,fishBanditPlugin,180,631832,0.0-177.0,1,0.1538461538461538,Certain,"[[0.8,0.2,0],[0,0.8,0.2],[0.2,0,0.8]]",0,6.5,1855.10000000149,,0,fish_bandit_trial_58,play,experimental,high,deeppink,100.0,"[2,0]",0.0,Wood Boat,0.0,700.0,0.0,Locona,1.0,Addish,58.0,,PVNK7
,,,,,html-button-response,181,633034,0.0-178.0,1,0.1538461538461538,Certain,"[[0.8,0.2,0],[0,0.8,0.2],[0.2,0,0.8]]",0,6.5,1202.0,"
        <div class=""feedback-container"" style=""text-align: center;"">
          <h3>Fishing Results</h3>
          <div style=""text-align: center;"">
            <p>You caught: <strong>Locona</strong></p><br>
            <img src='img/fish_blue.png' style='width: 150px; height: auto; margin: 10px;'></img>
          </div></div>",0,feedback_58,,,,,,,,,,,,,,,,,PVNK7
,,,,,fishBanditPlugin,182,637946,0.0-179.0,1,0.1538461538461538,Certain,"[[0.8,0.2,0],[0,0.8,0.2],[0.2,0,0.8]]",0,6.5,,,0,fish_bandit_trial_59,observe,experimental,high,deeppink,100.0,"[0,1]",0.0,Wood Boat,,,1.0,Addish,0.0,Locona,59.0,,PVNK7
,,,,,html-button-response,183,639182,0.0-180.0,1,0.1538461538461538,Certain,"[[0.8,0.2,0],[0,0.8,0.2],[0.2,0,0.8]]",0,6.5,1235.0,"
        <div class=""feedback-container"" style=""text-align: center;"">
          <h3>Fishing Results</h3>
          <div style=""text-align: center;"">
            <p>Allie caught: <strong>Addish</strong></p><br>
            <img src='img/fish_green.png' style='width: 150px; height: auto; margin: 10px;'></img>
          </div></div>",0,feedback_59,,,,,,,,,,,,,,,,,PVNK7
,,,,,fishBanditPlugin,184,641361,0.0-181.0,1,0.1538461538461538,Certain,"[[0.8,0.2,0],[0,0.8,0.2],[0.2,0,0.8]]",0,6.5,2178.199999999255,,0,fish_bandit_trial_60,play,experimental,high,deeppink,100.0,"[0,2]",0.0,Wood Boat,100.0,800.0,0.0,Locona,0.0,Locona,60.0,,PVNK7
,,,,,html-button-response,185,642382,0.0-182.0,1,0.1538461538461538,Certain,"[[0.8,0.2,0],[0,0.8,0.2],[0.2,0,0.8]]",0,6.5,1021.0,"
        <div class=""feedback-container"" style=""text-align: center;"">
          <h3>Fishing Results</h3>
          <div style=""text-align: center;"">
            <p>You caught: <strong>Locona</strong></p><br>
            <img src='img/fish_blue.png' style='width: 150px; height: auto; margin: 10px;'></img>
          </div></div>",0,feedback_60,,,,,,,,,,,,,,,,,PVNK7
,,,,,fishBanditPlugin,186,646335,0.0-183.0,1,0.1538461538461538,Certain,"[[0.8,0.2,0],[0,0.8,0.2],[0.2,0,0.8]]",0,6.5,,,0,fish_bandit_trial_61,observe,experimental,high,deeppink,100.0,"[0,1]",0.0,Wood Boat,,,0.0,Locona,0.0,Locona,61.0,,PVNK7
,,,,,html-button-response,187,647304,0.0-184.0,1,0.1538461538461538,Certain,"[[0.8,0.2,0],[0,0.8,0.2],[0.2,0,0.8]]",0,6.5,969.0,"
        <div class=""feedback-container"" style=""text-align: center;"">
          <h3>Fishing Results</h3>
          <div style=""text-align: center;"">
            <p>Allie caught: <strong>Locona</strong></p><br>
            <img src='img/fish_blue.png' style='width: 150px; height: auto; margin: 10px;'></img>
          </div></div>",0,feedback_61,,,,,,,,,,,,,,,,,PVNK7
,,,,,fishBanditPlugin,188,653318,0.0-185.0,1,0.1538461538461538,Certain,"[[0.8,0.2,0],[0,0.8,0.2],[0.2,0,0.8]]",0,6.5,,,2,fish_bandit_trial_62,observe,experimental,high,deeppink,100.0,"[1,2]",2.0,Metal Boat,,,2.0,Whuffey,0.0,Locona,62.0,,PVNK7
,,,,,html-button-response,189,654452,0.0-186.0,1,0.1538461538461538,Certain,"[[0.8,0.2,0],[0,0.8,0.2],[0.2,0,0.8]]",0,6.5,1133.0,"
        <div class=""feedback-container"" style=""text-align: center;"">
          <h3>Fishing Results</h3>
          <div style=""text-align: center;"">
            <p>Allie caught: <strong>Whuffey</strong></p><br>
            <img src='img/fish_red.png' style='width: 150px; height: auto; margin: 10px;'></img>
          </div></div>",0,feedback_62,,,,,,,,,,,,,,,,,PVNK7
,,,,,fishBanditPlugin,190,655866,0.0-187.0,1,0.1538461538461538,Certain,"[[0.8,0.2,0],[0,0.8,0.2],[0.2,0,0.8]]",0,6.5,1413.60000000149,,0,fish_bandit_trial_63,play,experimental,high,deeppink,100.0,"[2,0]",0.0,Wood Boat,0.0,800.0,1.0,Addish,0.0,Locona,63.0,,PVNK7
,,,,,html-button-response,191,656927,0.0-188.0,1,0.1538461538461538,Certain,"[[0.8,0.2,0],[0,0.8,0.2],[0.2,0,0.8]]",0,6.5,1061.0,"
        <div class=""feedback-container"" style=""text-align: center;"">
          <h3>Fishing Results</h3>
          <div style=""text-align: center;"">
            <p>You caught: <strong>Addish</strong></p><br>
            <img src='img/fish_green.png' style='width: 150px; height: auto; margin: 10px;'></img>
          </div></div>",0,feedback_63,,,,,,,,,,,,,,,,,PVNK7
,,,,,fishBanditPlugin,192,661921,0.0-189.0,1,0.1538461538461538,Certain,"[[0.8,0.2,0],[0,0.8,0.2],[0.2,0,0.8]]",0,6.5,,,2,fish_bandit_trial_64,observe,experimental,high,deeppink,100.0,"[2,1]",2.0,Metal Boat,,,2.0,Whuffey,0.0,Locona,64.0,,PVNK7
,,,,,html-button-response,193,663044,0.0-190.0,1,0.1538461538461538,Certain,"[[0.8,0.2,0],[0,0.8,0.2],[0.2,0,0.8]]",0,6.5,1122.0,"
        <div class=""feedback-container"" style=""text-align: center;"">
          <h3>Fishing Results</h3>
          <div style=""text-align: center;"">
            <p>Allie caught: <strong>Whuffey</strong></p><br>
            <img src='img/fish_red.png' style='width: 150px; height: auto; margin: 10px;'></img>
          </div></div>",0,feedback_64,,,,,,,,,,,,,,,,,PVNK7
,,,,,fishBanditPlugin,194,667534,0.0-191.0,1,0.1538461538461538,Certain,"[[0.8,0.2,0],[0,0.8,0.2],[0.2,0,0.8]]",0,6.5,,,0,fish_bandit_trial_65,observe,experimental,high,deeppink,100.0,"[2,0]",0.0,Wood Boat,,,0.0,Locona,0.0,Locona,65.0,,PVNK7
,,,,,html-button-response,195,668382,0.0-192.0,1,0.1538461538461538,Certain,"[[0.8,0.2,0],[0,0.8,0.2],[0.2,0,0.8]]",0,6.5,847.0,"
        <div class=""feedback-container"" style=""text-align: center;"">
          <h3>Fishing Results</h3>
          <div style=""text-align: center;"">
            <p>Allie caught: <strong>Locona</strong></p><br>
            <img src='img/fish_blue.png' style='width: 150px; height: auto; margin: 10px;'></img>
          </div></div>",0,feedback_65,,,,,,,,,,,,,,,,,PVNK7
,,,,,fishBanditPlugin,196,669350,0.0-193.0,1,0.1538461538461538,Certain,"[[0.8,0.2,0],[0,0.8,0.2],[0.2,0,0.8]]",0,6.5,966.9000000022352,,0,fish_bandit_trial_66,play,experimental,high,deeppink,100.0,"[0,1]",0.0,Wood Boat,0.0,800.0,0.0,Locona,1.0,Addish,66.0,,PVNK7
,,,,,html-button-response,197,670459,0.0-194.0,1,0.1538461538461538,Certain,"[[0.8,0.2,0],[0,0.8,0.2],[0.2,0,0.8]]",0,6.5,1108.0,"
        <div class=""feedback-container"" style=""text-align: center;"">
          <h3>Fishing Results</h3>
          <div style=""text-align: center;"">
            <p>You caught: <strong>Locona</strong></p><br>
            <img src='img/fish_blue.png' style='width: 150px; height: auto; margin: 10px;'></img>
          </div></div>",0,feedback_66,,,,,,,,,,,,,,,,,PVNK7
,,,,,fishBanditPlugin,198,674591,0.0-195.0,1,0.1538461538461538,Certain,"[[0.8,0.2,0],[0,0.8,0.2],[0.2,0,0.8]]",0,6.5,,,0,fish_bandit_trial_67,observe,experimental,high,deeppink,100.0,"[0,2]",0.0,Wood Boat,,,0.0,Locona,1.0,Addish,67.0,,PVNK7
,,,,,html-button-response,199,675458,0.0-196.0,1,0.1538461538461538,Certain,"[[0.8,0.2,0],[0,0.8,0.2],[0.2,0,0.8]]",0,6.5,866.0,"
        <div class=""feedback-container"" style=""text-align: center;"">
          <h3>Fishing Results</h3>
          <div style=""text-align: center;"">
            <p>Allie caught: <strong>Locona</strong></p><br>
            <img src='img/fish_blue.png' style='width: 150px; height: auto; margin: 10px;'></img>
          </div></div>",0,feedback_67,,,,,,,,,,,,,,,,,PVNK7
,,,,,fishBanditPlugin,200,677998,0.0-197.0,1,0.1538461538461538,Certain,"[[0.8,0.2,0],[0,0.8,0.2],[0.2,0,0.8]]",0,6.5,2538.300000000745,,2,fish_bandit_trial_68,play,experimental,high,deeppink,100.0,"[2,1]",2.0,Metal Boat,0.0,800.0,2.0,Whuffey,1.0,Addish,68.0,,PVNK7
,,,,,html-button-response,201,679846,0.0-198.0,1,0.1538461538461538,Certain,"[[0.8,0.2,0],[0,0.8,0.2],[0.2,0,0.8]]",0,6.5,1847.0,"
        <div class=""feedback-container"" style=""text-align: center;"">
          <h3>Fishing Results</h3>
          <div style=""text-align: center;"">
            <p>You caught: <strong>Whuffey</strong></p><br>
            <img src='img/fish_red.png' style='width: 150px; height: auto; margin: 10px;'></img>
          </div></div>",0,feedback_68,,,,,,,,,,,,,,,,,PVNK7
,,,,,html-button-response,202,681606,0.0-199.0,1,0.1538461538461538,Certain,"[[0.8,0.2,0],[0,0.8,0.2],[0.2,0,0.8]]",0,6.5,1759.0,"You have completed 52% of the fishing task.<br><br>
          In this section, you earned <strong>300 coins</strong>.<br><br> 
          Overall, you have earned <strong>800 coins</strong>, which adds <strong>$1.23</strong> to your bonus payment. <br><br> 
          Remember that the valuable fish will keep changing from time to time, so pay attention to Allie's choices! <br><br> 
          When you're ready, press the button to continue.",0,,,,,,,,,,,,,,,,,,PVNK7
,,,,,html-button-response,203,684326,0.0-200.0,1,0.1538461538461538,Certain,"[[0.8,0.2,0],[0,0.8,0.2],[0.2,0,0.8]]",0,6.5,2720.0,"
    <div style=""max-width: 900px; margin: 0 auto;"">
      <h3>Routine Days</h3>
      <img src='img/misthaven_routine.png' width='650' height='auto'></img>
      <p>The following days are routine days. The valuable fish is worth 10 coins.</p>
    </div>",0,routine_start,,,,,,,,,,,,,,,,,PVNK7
,,,,,fishBanditPlugin,204,690942,0.0-201.0,1,0.1538461538461538,Certain,"[[0.8,0.2,0],[0,0.8,0.2],[0.2,0,0.8]]",0,6.5,,,2,fish_bandit_trial_69,observe,experimental,low,gray,10.0,"[1,2]",2.0,Metal Boat,,,2.0,Whuffey,0.0,Locona,69.0,,PVNK7
,,,,,html-button-response,205,692338,0.0-202.0,1,0.1538461538461538,Certain,"[[0.8,0.2,0],[0,0.8,0.2],[0.2,0,0.8]]",0,6.5,1395.0,"
        <div class=""feedback-container"" style=""text-align: center;"">
          <h3>Fishing Results</h3>
          <div style=""text-align: center;"">
            <p>Allie caught: <strong>Whuffey</strong></p><br>
            <img src='img/fish_red.png' style='width: 150px; height: auto; margin: 10px;'></img>
          </div></div>",0,feedback_69,,,,,,,,,,,,,,,,,PVNK7
,,,,,fishBanditPlugin,206,696421,0.0-203.0,1,0.1538461538461538,Certain,"[[0.8,0.2,0],[0,0.8,0.2],[0.2,0,0.8]]",0,6.5,,,0,fish_bandit_trial_70,observe,experimental,low,gray,10.0,"[0,1]",0.0,Wood Boat,,,0.0,Locona,0.0,Locona,70.0,,PVNK7
,,,,,html-button-response,207,697426,0.0-204.0,1,0.1538461538461538,Certain,"[[0.8,0.2,0],[0,0.8,0.2],[0.2,0,0.8]]",0,6.5,1004.0,"
        <div class=""feedback-container"" style=""text-align: center;"">
          <h3>Fishing Results</h3>
          <div style=""text-align: center;"">
            <p>Allie caught: <strong>Locona</strong></p><br>
            <img src='img/fish_blue.png' style='width: 150px; height: auto; margin: 10px;'></img>
          </div></div>",0,feedback_70,,,,,,,,,,,,,,,,,PVNK7
,,,,,fishBanditPlugin,208,701171,0.0-205.0,1,0.1538461538461538,Certain,"[[0.8,0.2,0],[0,0.8,0.2],[0.2,0,0.8]]",0,6.5,,,2,fish_bandit_trial_71,observe,experimental,low,gray,10.0,"[1,2]",2.0,Metal Boat,,,2.0,Whuffey,0.0,Locona,71.0,,PVNK7
,,,,,html-button-response,209,702235,0.0-206.0,1,0.1538461538461538,Certain,"[[0.8,0.2,0],[0,0.8,0.2],[0.2,0,0.8]]",0,6.5,1064.0,"
        <div class=""feedback-container"" style=""text-align: center;"">
          <h3>Fishing Results</h3>
          <div style=""text-align: center;"">
            <p>Allie caught: <strong>Whuffey</strong></p><br>
            <img src='img/fish_red.png' style='width: 150px; height: auto; margin: 10px;'></img>
          </div></div>",0,feedback_71,,,,,,,,,,,,,,,,,PVNK7
,,,,,fishBanditPlugin,210,704335,0.0-207.0,1,0.1538461538461538,Certain,"[[0.8,0.2,0],[0,0.8,0.2],[0.2,0,0.8]]",0,6.5,2099.199999999255,,0,fish_bandit_trial_72,play,experimental,low,gray,10.0,"[2,0]",0.0,Wood Boat,0.0,800.0,1.0,Addish,0.0,Locona,72.0,,PVNK7
,,,,,html-button-response,211,705318,0.0-208.0,1,0.1538461538461538,Certain,"[[0.8,0.2,0],[0,0.8,0.2],[0.2,0,0.8]]",0,6.5,982.0,"
        <div class=""feedback-container"" style=""text-align: center;"">
          <h3>Fishing Results</h3>
          <div style=""text-align: center;"">
            <p>You caught: <strong>Addish</strong></p><br>
            <img src='img/fish_green.png' style='width: 150px; height: auto; margin: 10px;'></img>
          </div></div>",0,feedback_72,,,,,,,,,,,,,,,,,PVNK7
,,,,,fishBanditPlugin,212,709677,0.0-209.0,1,0.1538461538461538,Certain,"[[0.8,0.2,0],[0,0.8,0.2],[0.2,0,0.8]]",0,6.5,,,0,fish_bandit_trial_73,observe,experimental,low,gray,10.0,"[1,0]",0.0,Wood Boat,,,0.0,Locona,0.0,Locona,73.0,,PVNK7
,,,,,html-button-response,213,710610,0.0-210.0,1,0.1538461538461538,Certain,"[[0.8,0.2,0],[0,0.8,0.2],[0.2,0,0.8]]",0,6.5,932.0,"
        <div class=""feedback-container"" style=""text-align: center;"">
          <h3>Fishing Results</h3>
          <div style=""text-align: center;"">
            <p>Allie caught: <strong>Locona</strong></p><br>
            <img src='img/fish_blue.png' style='width: 150px; height: auto; margin: 10px;'></img>
          </div></div>",0,feedback_73,,,,,,,,,,,,,,,,,PVNK7
,,,,,fishBanditPlugin,214,715106,0.0-211.0,1,0.1538461538461538,Certain,"[[0.8,0.2,0],[0,0.8,0.2],[0.2,0,0.8]]",0,6.5,,,0,fish_bandit_trial_74,observe,experimental,low,gray,10.0,"[0,2]",0.0,Wood Boat,,,0.0,Locona,0.0,Locona,74.0,,PVNK7
,,,,,html-button-response,215,716050,0.0-212.0,1,0.1538461538461538,Certain,"[[0.8,0.2,0],[0,0.8,0.2],[0.2,0,0.8]]",0,6.5,944.0,"
        <div class=""feedback-container"" style=""text-align: center;"">
          <h3>Fishing Results</h3>
          <div style=""text-align: center;"">
            <p>Allie caught: <strong>Locona</strong></p><br>
            <img src='img/fish_blue.png' style='width: 150px; height: auto; margin: 10px;'></img>
          </div></div>",0,feedback_74,,,,,,,,,,,,,,,,,PVNK7
,,,,,fishBanditPlugin,216,717267,0.0-213.0,1,0.1538461538461538,Certain,"[[0.8,0.2,0],[0,0.8,0.2],[0.2,0,0.8]]",0,6.5,1216.4000000022352,,0,fish_bandit_trial_75,play,experimental,low,gray,10.0,"[0,1]",0.0,Wood Boat,10.0,810.0,0.0,Locona,0.0,Locona,75.0,,PVNK7
,,,,,html-button-response,217,718887,0.0-214.0,1,0.1538461538461538,Certain,"[[0.8,0.2,0],[0,0.8,0.2],[0.2,0,0.8]]",0,6.5,1620.0,"
        <div class=""feedback-container"" style=""text-align: center;"">
          <h3>Fishing Results</h3>
          <div style=""text-align: center;"">
            <p>You caught: <strong>Locona</strong></p><br>
            <img src='img/fish_blue.png' style='width: 150px; height: auto; margin: 10px;'></img>
          </div></div>",0,feedback_75,,,,,,,,,,,,,,,,,PVNK7
,,,,,fishBanditPlugin,218,727959,0.0-215.0,1,0.1538461538461538,Certain,"[[0.8,0.2,0],[0,0.8,0.2],[0.2,0,0.8]]",0,6.5,,,0,fish_bandit_trial_76,observe,experimental,low,gray,10.0,"[0,2]",0.0,Wood Boat,,,0.0,Locona,1.0,Addish,76.0,,PVNK7
,,,,,html-button-response,219,729326,0.0-216.0,1,0.1538461538461538,Certain,"[[0.8,0.2,0],[0,0.8,0.2],[0.2,0,0.8]]",0,6.5,1366.0,"
        <div class=""feedback-container"" style=""text-align: center;"">
          <h3>Fishing Results</h3>
          <div style=""text-align: center;"">
            <p>Allie caught: <strong>Locona</strong></p><br>
            <img src='img/fish_blue.png' style='width: 150px; height: auto; margin: 10px;'></img>
          </div></div>",0,feedback_76,,,,,,,,,,,,,,,,,PVNK7
,,,,,fishBanditPlugin,220,733470,0.0-217.0,1,0.1538461538461538,Certain,"[[0.8,0.2,0],[0,0.8,0.2],[0.2,0,0.8]]",0,6.5,,,1,fish_bandit_trial_77,observe,experimental,low,gray,10.0,"[0,1]",1.0,White Boat,,,2.0,Whuffey,1.0,Addish,77.0,,PVNK7
,,,,,html-button-response,221,734672,0.0-218.0,1,0.1538461538461538,Certain,"[[0.8,0.2,0],[0,0.8,0.2],[0.2,0,0.8]]",0,6.5,1201.0,"
        <div class=""feedback-container"" style=""text-align: center;"">
          <h3>Fishing Results</h3>
          <div style=""text-align: center;"">
            <p>Allie caught: <strong>Whuffey</strong></p><br>
            <img src='img/fish_red.png' style='width: 150px; height: auto; margin: 10px;'></img>
          </div></div>",0,feedback_77,,,,,,,,,,,,,,,,,PVNK7
,,,,,fishBanditPlugin,222,736024,0.0-219.0,1,0.1538461538461538,Certain,"[[0.8,0.2,0],[0,0.8,0.2],[0.2,0,0.8]]",0,6.5,1351.4000000022352,,1,fish_bandit_trial_78,play,experimental,low,gray,10.0,"[1,2]",1.0,White Boat,10.0,820.0,1.0,Addish,1.0,Addish,78.0,,PVNK7
,,,,,html-button-response,223,736851,0.0-220.0,1,0.1538461538461538,Certain,"[[0.8,0.2,0],[0,0.8,0.2],[0.2,0,0.8]]",0,6.5,826.0,"
        <div class=""feedback-container"" style=""text-align: center;"">
          <h3>Fishing Results</h3>
          <div style=""text-align: center;"">
            <p>You caught: <strong>Addish</strong></p><br>
            <img src='img/fish_green.png' style='width: 150px; height: auto; margin: 10px;'></img>
          </div></div>",0,feedback_78,,,,,,,,,,,,,,,,,PVNK7
,,,,,fishBanditPlugin,224,741558,0.0-221.0,1,0.1538461538461538,Certain,"[[0.8,0.2,0],[0,0.8,0.2],[0.2,0,0.8]]",0,6.5,,,1,fish_bandit_trial_79,observe,experimental,low,gray,10.0,"[1,0]",1.0,White Boat,,,1.0,Addish,1.0,Addish,79.0,,PVNK7
,,,,,html-button-response,225,743148,0.0-222.0,1,0.1538461538461538,Certain,"[[0.8,0.2,0],[0,0.8,0.2],[0.2,0,0.8]]",0,6.5,1590.0,"
        <div class=""feedback-container"" style=""text-align: center;"">
          <h3>Fishing Results</h3>
          <div style=""text-align: center;"">
            <p>Allie caught: <strong>Addish</strong></p><br>
            <img src='img/fish_green.png' style='width: 150px; height: auto; margin: 10px;'></img>
          </div></div>",0,feedback_79,,,,,,,,,,,,,,,,,PVNK7
,,,,,fishBanditPlugin,226,744358,0.0-223.0,1,0.1538461538461538,Certain,"[[0.8,0.2,0],[0,0.8,0.2],[0.2,0,0.8]]",0,6.5,1208.300000000745,,1,fish_bandit_trial_80,play,experimental,low,gray,10.0,"[1,2]",1.0,White Boat,10.0,830.0,1.0,Addish,1.0,Addish,80.0,,PVNK7
,,,,,html-button-response,227,745136,0.0-224.0,1,0.1538461538461538,Certain,"[[0.8,0.2,0],[0,0.8,0.2],[0.2,0,0.8]]",0,6.5,778.0,"
        <div class=""feedback-container"" style=""text-align: center;"">
          <h3>Fishing Results</h3>
          <div style=""text-align: center;"">
            <p>You caught: <strong>Addish</strong></p><br>
            <img src='img/fish_green.png' style='width: 150px; height: auto; margin: 10px;'></img>
          </div></div>",0,feedback_80,,,,,,,,,,,,,,,,,PVNK7
,,,,,fishBanditPlugin,228,749869,0.0-225.0,1,0.1538461538461538,Certain,"[[0.8,0.2,0],[0,0.8,0.2],[0.2,0,0.8]]",0,6.5,,,1,fish_bandit_trial_81,observe,experimental,low,gray,10.0,"[1,0]",1.0,White Boat,,,2.0,Whuffey,1.0,Addish,81.0,,PVNK7
,,,,,html-button-response,229,751214,0.0-226.0,1,0.1538461538461538,Certain,"[[0.8,0.2,0],[0,0.8,0.2],[0.2,0,0.8]]",0,6.5,1345.0,"
        <div class=""feedback-container"" style=""text-align: center;"">
          <h3>Fishing Results</h3>
          <div style=""text-align: center;"">
            <p>Allie caught: <strong>Whuffey</strong></p><br>
            <img src='img/fish_red.png' style='width: 150px; height: auto; margin: 10px;'></img>
          </div></div>",0,feedback_81,,,,,,,,,,,,,,,,,PVNK7
,,,,,fishBanditPlugin,230,753290,0.0-227.0,1,0.1538461538461538,Certain,"[[0.8,0.2,0],[0,0.8,0.2],[0.2,0,0.8]]",0,6.5,2074.20000000298,,0,fish_bandit_trial_82,play,experimental,low,gray,10.0,"[0,2]",0.0,Wood Boat,10.0,840.0,0.0,Locona,0.0,Locona,82.0,,PVNK7
,,,,,html-button-response,231,754422,0.0-228.0,1,0.1538461538461538,Certain,"[[0.8,0.2,0],[0,0.8,0.2],[0.2,0,0.8]]",0,6.5,1132.0,"
        <div class=""feedback-container"" style=""text-align: center;"">
          <h3>Fishing Results</h3>
          <div style=""text-align: center;"">
            <p>You caught: <strong>Locona</strong></p><br>
            <img src='img/fish_blue.png' style='width: 150px; height: auto; margin: 10px;'></img>
          </div></div>",0,feedback_82,,,,,,,,,,,,,,,,,PVNK7
,,,,,fishBanditPlugin,232,758612,0.0-229.0,1,0.1538461538461538,Certain,"[[0.8,0.2,0],[0,0.8,0.2],[0.2,0,0.8]]",0,6.5,,,0,fish_bandit_trial_83,observe,experimental,low,gray,10.0,"[0,1]",0.0,Wood Boat,,,0.0,Locona,0.0,Locona,83.0,,PVNK7
,,,,,html-button-response,233,759483,0.0-230.0,1,0.1538461538461538,Certain,"[[0.8,0.2,0],[0,0.8,0.2],[0.2,0,0.8]]",0,6.5,871.0,"
        <div class=""feedback-container"" style=""text-align: center;"">
          <h3>Fishing Results</h3>
          <div style=""text-align: center;"">
            <p>Allie caught: <strong>Locona</strong></p><br>
            <img src='img/fish_blue.png' style='width: 150px; height: auto; margin: 10px;'></img>
          </div></div>",0,feedback_83,,,,,,,,,,,,,,,,,PVNK7
,,,,,fishBanditPlugin,234,764118,0.0-231.0,1,0.1538461538461538,Certain,"[[0.8,0.2,0],[0,0.8,0.2],[0.2,0,0.8]]",0,6.5,,,0,fish_bandit_trial_84,observe,experimental,low,gray,10.0,"[0,2]",0.0,Wood Boat,,,0.0,Locona,0.0,Locona,84.0,,PVNK7
,,,,,html-button-response,235,764949,0.0-232.0,1,0.1538461538461538,Certain,"[[0.8,0.2,0],[0,0.8,0.2],[0.2,0,0.8]]",0,6.5,830.0,"
        <div class=""feedback-container"" style=""text-align: center;"">
          <h3>Fishing Results</h3>
          <div style=""text-align: center;"">
            <p>Allie caught: <strong>Locona</strong></p><br>
            <img src='img/fish_blue.png' style='width: 150px; height: auto; margin: 10px;'></img>
          </div></div>",0,feedback_84,,,,,,,,,,,,,,,,,PVNK7
